onset	duration	trial_type	condition	repetition	pairmate	pairID	category	subcategory	response_accuracy	response_time
13.505926127545536	1	postlearning	violation	2	n/a	24	face	female	1	0.4656702624633908
16.505889493972067	1	postlearning	violation	2	n/a	15	face	male	1	0.3987068021669984
19.505841890349984	1	postlearning	violation	2	n/a	25	face	male	1	0.4857709789648652
22.50580450333655	1	postlearning	violation	2	n/a	32	face	female	1	0.4307979829609394
25.505761429667476	1	postlearning	violation	2	n/a	16	face	female	1	0.3778420500457287
28.505721838213507	1	postlearning	violation	2	n/a	48	face	male	1	0.3819039911031723
31.505683783441786	1	postlearning	violation	2	n/a	42	face	female	1	0.4889125172048807
34.505643444135785	1	postlearning	violation	2	n/a	23	face	female	1	0.497957818210125
37.505603737197816	1	postlearning	violation	2	n/a	24	face	female	1	0.6249326262623072
40.505563497543335	1	postlearning	violation	2	n/a	40	face	female	1	0.4720366401597858
43.50552329514176	1	postlearning	violation	2	n/a	16	face	female	1	0.4210853995755315
46.50548335723578	1	postlearning	violation	2	n/a	27	face	male	1	0.4971165722236037
49.50544307287782	1	postlearning	violation	2	n/a	29	face	male	1	0.3551243068650365
52.505402570590384	1	postlearning	violation	2	n/a	19	face	male	1	0.3272073548287153
55.50536223966628	1	postlearning	violation	2	n/a	45	face	female	1	0.3902655076235533
58.505322360433645	1	postlearning	violation	2	n/a	41	face	male	1	0.40524746384471655
61.505280327051885	1	postlearning	violation	2	n/a	34	face	male	1	0.3523259814828634
64.50524202827364	1	postlearning	violation	2	n/a	48	face	male	1	0.3843573508784175
67.50520083960146	1	postlearning	violation	2	n/a	11	face	female	1	0.35240568313747644
70.5051689716056	1	postlearning	violation	2	n/a	17	face	male	1	0.4004270425066352
73.50512135773897	1	postlearning	violation	2	n/a	21	face	female	1	0.4064785214141011
76.5050805034116	1	postlearning	violation	2	n/a	23	face	female	1	0.4675224497914314
79.50504040997474	1	postlearning	violation	2	n/a	42	face	female	1	0.419558959081769
82.50499991327523	1	postlearning	violation	2	n/a	6	face	female	1	0.3626028625294566
85.504956997931	1	postlearning	violation	2	n/a	38	face	female	1	0.3496506288647652
88.50491675920784	1	postlearning	violation	2	n/a	8	face	female	1	0.3676850777119398
91.50487864296885	1	postlearning	violation	2	n/a	4	face	female	1	0.456725019030273
94.50483637023716	1	postlearning	violation	2	n/a	36	face	male	1	0.4248461574316025
97.5047979708761	1	postlearning	violation	2	n/a	1	face	female	1	0.4308371329680085
100.50475733634084	1	postlearning	violation	2	n/a	35	face	male	1	0.4738490600138903
103.50471675675361	1	postlearning	violation	2	n/a	45	face	female	1	0.360890987329185
106.50467657856643	1	postlearning	violation	2	n/a	14	face	male	1	0.4269321821630001
109.50463551282884	1	postlearning	violation	2	n/a	3	face	male	1	0.4780474761500954
112.50459377840158	1	postlearning	violation	2	n/a	47	face	male	1	0.3890153523534536
115.50455276016146	1	postlearning	violation	2	n/a	47	face	male	1	0.3740586219355464
118.50451335590331	1	postlearning	violation	2	n/a	9	face	male	1	0.4780959663912654
121.50447376724331	1	postlearning	violation	2	n/a	19	face	male	1	0.35413808934390545
124.50443055294454	1	postlearning	violation	2	n/a	18	face	male	1	0.4191806865856051
127.50439272075891	1	postlearning	violation	2	n/a	44	face	male	1	0.4822188476100564
130.50435198377818	1	postlearning	violation	2	n/a	17	face	male	1	0.3852569153532386
133.5043183816597	1	postlearning	violation	2	n/a	5	face	male	1	0.3812906052917242
136.50426853913814	1	postlearning	violation	2	n/a	21	face	female	1	0.3783446364104748
139.50423069670796	1	postlearning	violation	2	n/a	4	face	female	1	0.36637784261256456
142.50418959278613	1	postlearning	violation	2	n/a	30	face	male	1	0.3784288140013814
145.504149322398	1	postlearning	violation	2	n/a	20	face	male	1	0.4973617726936936
148.50410859286785	1	postlearning	violation	2	n/a	28	face	female	1	0.3415846172720194
151.50406505260617	1	postlearning	violation	2	n/a	15	face	male	1	0.36855089943856
154.50402691029012	1	postlearning	violation	2	n/a	29	face	male	1	0.3565841494128108
157.50398631580177	1	postlearning	violation	2	n/a	22	face	female	1	0.4726296691223979
160.50394564308226	1	postlearning	violation	2	n/a	1	face	female	1	0.604673869907856
163.50390396080908	1	postlearning	violation	2	n/a	40	face	female	1	0.4177080448716879
166.50386431906372	1	postlearning	violation	2	n/a	28	face	female	1	0.5387500068172812
169.50382362026718	1	postlearning	violation	2	n/a	27	face	male	1	0.4067887701094151
172.5037826569751	1	postlearning	violation	2	n/a	38	face	female	1	0.5238326629623771
175.50374237075448	1	postlearning	violation	2	n/a	26	face	female	1	0.4258688120171428
178.50370096694678	1	postlearning	violation	2	n/a	14	face	male	1	0.3788845418021083
181.50366031657902	1	postlearning	violation	2	n/a	9	face	male	1	0.5449642864987254
184.50361985340717	1	postlearning	violation	2	n/a	2	face	male	1	0.371993787586689
187.50357881654054	1	postlearning	violation	2	n/a	22	face	female	1	0.3610366079956293
190.5035373764113	1	postlearning	violation	2	n/a	12	face	female	1	0.5200944999232888
193.5034975409508	1	postlearning	violation	2	n/a	44	face	male	1	0.3991240710020065
196.50345626473427	1	postlearning	violation	2	n/a	33	face	male	1	0.4341609524562955
199.5034151161089	1	postlearning	violation	2	n/a	37	face	female	1	0.40720296557992697
202.50337244942784	1	postlearning	violation	2	n/a	35	face	male	1	0.4952469859272242
205.50333399977532	1	postlearning	violation	2	n/a	7	face	male	1	0.4152655769139528
208.5032934593037	1	postlearning	violation	2	n/a	32	face	female	1	0.4673245903104544
211.50325073394924	1	postlearning	violation	2	n/a	39	face	female	1	0.4093451304361224
214.50321185868236	1	postlearning	violation	2	n/a	25	face	male	1	0.42641254235059023
217.5031707333401	1	postlearning	violation	2	n/a	31	face	female	1	0.3594513162970543
220.50313016120342	1	postlearning	violation	2	n/a	41	face	male	1	0.403491516597569
223.50308945402503	1	postlearning	violation	2	n/a	7	face	male	1	0.4205289585515857
226.503047936596	1	postlearning	violation	2	n/a	3	face	male	1	0.4115794021636248
229.50300560798496	1	postlearning	violation	2	n/a	20	face	male	1	0.4236158188432455
232.5029663667083	1	postlearning	violation	2	n/a	31	face	female	1	0.3736529191955924
235.50292628910395	1	postlearning	violation	2	n/a	30	face	male	1	0.5056973882019521
238.502884240821	1	postlearning	violation	2	n/a	39	face	female	1	0.4697351781651378
241.5028438102454	1	postlearning	violation	2	n/a	43	face	female	1	0.3848159871995449
244.5028023533523	1	postlearning	violation	2	n/a	11	face	female	1	0.3818244896829128
247.50276254769412	1	postlearning	violation	2	n/a	36	face	male	1	0.3948638653382659
250.50272331666199	1	postlearning	violation	2	n/a	13	face	female	1	0.3789072586223483
253.50268016383046	1	postlearning	violation	2	n/a	46	face	female	1	0.4709524773061276
256.50263902824366	1	postlearning	violation	2	n/a	18	face	male	1	0.4029878759756684
259.5025969417766	1	postlearning	violation	2	n/a	10	face	male	1	0.4560378612950444
262.48588758613914	1	postlearning	violation	2	n/a	46	face	female	1	0.43574094492942095
265.48590084724134	1	postlearning	violation	2	n/a	13	face	female	1	0.4167232057079673
268.5024745101109	1	postlearning	violation	2	n/a	37	face	female	1	0.4591266941279173
271.48577306605875	1	postlearning	violation	2	n/a	8	face	female	1	0.4019315484911203
274.4857269562781	1	postlearning	violation	2	n/a	6	face	female	1	0.375828598625958
277.5023528849706	1	postlearning	violation	2	n/a	33	face	male	1	0.4122733157128096
280.485646545887	1	postlearning	violation	2	n/a	26	face	female	1	0.6059811208397149
283.48560291994363	1	postlearning	violation	2	n/a	10	face	male	1	0.41303739231079817
286.48556061182165	1	postlearning	violation	2	n/a	34	face	male	1	0.5680690137669444
289.48552087508136	1	postlearning	violation	2	n/a	2	face	male	1	0.5801052618771791
292.4854787075892	1	postlearning	violation	2	n/a	43	face	female	1	0.41115498449653387
295.4854416800663	1	postlearning	violation	2	n/a	12	face	female	1	0.4051851239055395
298.4853979339823	1	postlearning	violation	2	n/a	5	face	male	1	0.4282372212037444
