onset	duration	trial_type	subcategory	response_accuracy	response_time
13.507654049084522	0.5	face	male	1	0.6505402609473094
15.007621960015967	0.5	face	female	1	0.42857819399796426
16.507612131070346	0.5	face	male	1	0.483582493965514
18.007601461024024	0.5	face	male	1	0.5295936070615426
19.507577053038403	0.5	face	male	1	0.44862421799916774
21.007555267075077	0.5	face	male	1	0.47264605900272727
22.50753272906877	0.5	face	female	1	0.4236637989524752
24.007518605096266	0.5	face	female	1	0.5256810289574787
25.507500100065954	0.5	face	female	1	0.5386944169877097
27.00747551501263	0.5	face	female	1	0.6277249259874225
43.50726327509619	0.5	face	female	1	0.5839377249358222
45.007242389023304	0.5	face	female	1	0.4959615860134363
46.50722793105524	0.5	face	male	1	0.6049056469928473
48.00720262399409	0.5	face	female	1	0.5519970820751041
49.507181911030784	0.5	face	male	1	0.4160176010336727
51.00715720804874	0.5	face	male	1	0.35305160796269774
52.50714147207327	0.5	face	female	1	0.455057860002853
54.00712724006735	0.5	face	female	1	0.5300769499735907
55.50710157910362	0.5	face	male	1	0.44009844795800745
57.00709036004264	0.5	face	male	1	0.4181112189544365
73.50686534901615	0.5	face	female	1	0.6393383260583505
75.00684775609989	0.5	face	female	1	0.5033542040036991
76.5068311780924	0.5	face	female	1	0.33337446593213826
78.00681494304445	0.5	face	male	1	0.35039138002321124
79.5067881650757	0.5	face	male	1	0.2964168549515307
81.00676600809675	0.5	face	male	1	0.36943494994193316
82.50674879108556	0.5	face	male	1	0.38245375792030245
84.00672841910273	0.5	face	male	1	0.37949061288964003
85.50670902407728	0.5	face	female	0	0.36449616495519876
87.00669925508555	0.5	face	female	1	0.5345072349300608
103.5064806630835	0.5	object	natural	1	0.7207297899294645
105.00645286403596	0.5	object	manmade	1	0.719766543013975
106.50643372500781	0.5	object	manmade	1	0.5057710220571607
108.00641202402767	0.5	object	natural	1	0.5697988470783457
109.50639331806451	0.5	object	manmade	1	0.6467503820313141
111.00637437705882	0.5	object	natural	1	0.5808328479761258
112.50636153307278	0.5	object	manmade	1	0.45383613102603704
114.00633289502002	0.5	object	manmade	1	1.011874150019139
115.50631318206433	0.5	object	natural	1	0.5708927389932796
117.00630478700623	0.5	object	natural	1	0.7119042699923739
133.50607649306767	0.5	scene	indoor	1	0.5891360610257834
135.00605736102443	0.5	scene	outdoor	1	0.6301534459926188
136.50603606610093	0.5	scene	outdoor	1	0.4581757679115981
138.00601577199996	0.5	scene	indoor	1	0.47819072799757123
139.50600059505086	0.5	scene	outdoor	1	0.6652121540391818
141.00598652800545	0.5	scene	indoor	1	0.6152274589985609
142.50596239604056	0.5	scene	indoor	1	0.923252769978717
144.00593732006382	0.5	scene	outdoor	1	0.5032508169533685
145.5059189100284	0.5	scene	outdoor	1	0.797289529000409
147.00590406300034	0.5	scene	indoor	1	0.6093104199972004
163.50568209204357	0.5	scene	outdoor	1	0.6245357380248606
165.005660096067	0.5	scene	outdoor	1	0.5775548559613526
166.50564944802318	0.5	scene	indoor	1	0.3335758310277015
168.0056211129995	0.5	scene	indoor	1	0.3995977350277826
169.50560336501803	0.5	scene	indoor	1	0.4556132040452212
171.00558004505	0.5	scene	outdoor	1	0.5985507989535108
172.5055711590685	0.5	scene	outdoor	1	0.567644192953594
174.00554102205206	0.5	scene	outdoor	1	0.5996750900521874
175.5055309330346	0.5	scene	indoor	1	0.5456875379895791
177.00551086105406	0.5	scene	indoor	1	0.6487073439639062
193.505285461084	0.5	scene	indoor	1	0.455933774006553
195.00526465300936	0.5	scene	indoor	1	0.5389544350327924
196.5052477340214	0.5	scene	outdoor	1	0.5259727230295539
198.00522493803874	0.5	scene	outdoor	1	0.35099526098929346
199.50520582706667	0.5	scene	indoor	1	0.39401769102551043
200.98851676506456	0.5	scene	outdoor	1	0.8867066520033404
202.48849754303228	0.5	scene	indoor	1	0.7437618980184197
203.98847566510085	0.5	scene	outdoor	1	0.4807418279815465
205.4884486690862	0.5	scene	outdoor	0	0.7817743979394436
206.98843784199562	0.5	scene	indoor	1	0.4727876780088991
223.4882168309996	0.5	face	male	1	0.49792074505239725
224.9881978520425	0.5	face	male	1	0.40402321401052177
226.4881799930008	0.5	face	male	1	0.46904585999436677
227.98816137807444	0.5	face	male	1	0.5520611349493265
229.48813737905584	0.5	face	female	1	0.6820828990312293
230.9881270690821	0.5	face	female	1	0.5560942490119487
232.48810505808797	0.5	face	male	1	0.45812132698483765
233.988078921102	0.5	face	female	n/a	n/a
235.488058165065	0.5	face	female	n/a	n/a
236.98803855502047	0.5	face	female	n/a	n/a
253.48782528506126	0.5	scene	indoor	1	0.6314056880073622
254.98780577501748	0.5	scene	outdoor	1	0.6774227260611951
256.48779752803966	0.5	scene	indoor	1	0.5134337219642475
257.9877685010433	0.5	scene	indoor	0	0.6324555439641699
259.4877471970394	0.5	scene	indoor	0	0.9174748050281778
260.987716288073	0.5	scene	outdoor	1	0.513513669022359
262.48770613607485	0.5	scene	outdoor	1	0.4575215280056
263.98768385103904	0.5	scene	indoor	1	0.5335573269985616
265.4876680780435	0.5	scene	outdoor	1	0.727562419953756
266.987657092046	0.5	scene	outdoor	1	0.47057779005263
283.4874303890392	0.5	scene	indoor	1	0.5168006049934775
284.98740414204076	0.5	scene	outdoor	1	0.4538238149834797
286.4921779730357	0.5	scene	indoor	1	0.5340532569680363
287.98736575304065	0.5	scene	outdoor	1	0.6568650109693408
289.4873468610458	0.5	scene	indoor	1	0.5798857529880479
290.98734311107546	0.5	scene	indoor	1	0.6258060110267252
292.4873036550125	0.5	scene	indoor	1	0.776934482040815
293.98727895808406	0.5	scene	outdoor	1	0.5279581969371065
295.4872779530706	0.5	scene	outdoor	1	0.4729547309689224
296.9872510370333	0.5	scene	outdoor	1	0.6489837900735438
313.48704135406297	0.5	object	manmade	1	0.6112223550444469
314.9870135480305	0.5	object	natural	1	0.4492193959886208
316.49157987802755	0.5	object	natural	0	0.6386588159948587
317.98696911905427	0.5	object	manmade	1	0.4942612280137837
319.486960797105	0.5	object	natural	1	0.5922811799682677
320.98695071809925	0.5	object	natural	1	0.3742851779097691
322.48690892208833	0.5	object	manmade	1	0.46332446101587266
323.98690767702647	0.5	object	manmade	1	0.5083292620256543
325.48687372810673	0.5	object	natural	1	0.5383581039495766
326.98685140907764	0.5	object	manmade	1	0.5343820069683716
343.48663205699995	0.5	object	manmade	1	0.8736035421025008
344.98661009804346	0.5	object	manmade	1	0.5056283459998667
346.4889772119932	0.5	object	natural	1	0.4622657260624692
347.9865697060013	0.5	object	natural	1	0.7066672639921308
349.48655111610424	0.5	object	manmade	1	0.5197026479290798
350.9865316430805	0.5	object	manmade	1	0.6607100389664993
352.4865230449941	0.5	object	natural	1	0.5457221070537344
353.98649145499803	0.5	object	natural	1	0.43075102800503373
355.4864695461001	0.5	object	natural	1	0.9327696429099888
356.9864526320016	0.5	object	manmade	1	0.5647876460570842
373.48623928509187	0.5	face	female	1	0.5669704359024763
374.9862114120042	0.5	face	female	1	0.526026071049273
376.48780811205506	0.5	face	female	1	0.49843643500935286
377.9861763990484	0.5	face	male	1	0.4000642909668386
379.4861556950491	0.5	face	male	1	0.5481122080236673
380.98613720503636	0.5	face	female	0	0.7381062039639801
382.4861153990496	0.5	face	male	1	0.5341291859513149
383.98609686410055	0.5	face	female	1	0.5781493119429797
385.4860719150165	0.5	face	male	1	0.6241712929913774
386.9860536180204	0.5	face	male	1	0.46219128207303584
403.4858332760632	0.5	object	manmade	0	0.77041051001288
404.98581333004404	0.5	object	natural	1	0.5104355330113322
406.4868675840553	0.5	object	manmade	1	0.5193881540326402
407.9857740110019	0.5	object	manmade	0	0.5534721229923889
409.4857555910712	0.5	object	manmade	1	0.5535049990285188
410.98573279508855	0.5	object	natural	1	0.5555163029348478
412.4857168130111	0.5	object	natural	1	0.6845280330162495
413.9856933580013	0.5	object	natural	1	0.5985531060723588
415.4856727400329	0.5	object	natural	0	0.558576598064974
416.9856641050428	0.5	object	manmade	1	0.5155870839953423
433.48544446204323	0.5	object	manmade	1	0.9268043680349365
434.9854151851032	0.5	object	manmade	1	0.551834148936905
436.4854059530189	0.5	object	natural	1	0.43985366506967694
437.985377806006	0.5	object	manmade	1	0.5308738830499351
439.48535925801843	0.5	object	natural	1	0.555899371043779
440.98533689801116	0.5	object	natural	1	0.5849118290934712
442.485325343092	0.5	object	manmade	1	0.8369245579233393
443.98529782507103	0.5	object	natural	1	0.5899533840129152
445.48527585109696	0.5	object	natural	1	0.4329757789382711
446.9852564110188	0.5	object	manmade	1	0.731999575975351
