onset	duration	trial_type	condition	repetition	pairmate	pairID	category	subcategory	response_accuracy	response_time
13.505892158951609	1	prelearning	violation	1	A	30	scene	indoor	1	0.6045654327608645
16.5058596287854	1	prelearning	violation	1	A	26	scene	outdoor	1	0.5545718488283455
19.505804148036987	1	prelearning	violation	1	B	25	scene	outdoor	1	0.5886529618874192
22.505772297736254	1	prelearning	nonviolation	1	B	75	scene	outdoor	1	0.6486860350705683
25.505736730992798	1	prelearning	violation	1	B	28	scene	outdoor	1	0.5887245158664882
28.50569024868309	1	prelearning	violation	1	A	25	scene	outdoor	1	0.5727921221405268
31.505650165956467	1	prelearning	violation	1	A	28	scene	indoor	0	0.5948069607838988
34.505613200832165	1	prelearning	nonviolation	1	A	76	scene	indoor	1	0.6658585630357265
37.50557251274586	1	prelearning	nonviolation	1	A	73	scene	outdoor	1	0.6338813039474189
40.50553368870169	1	prelearning	nonviolation	1	A	78	scene	outdoor	1	0.6099297013133764
43.505508038681	1	prelearning	violation	1	A	27	scene	outdoor	1	0.5959526360966265
46.50545392278582	1	prelearning	nonviolation	1	A	80	scene	indoor	1	0.6200056960806251
49.50541428569704	1	prelearning	nonviolation	1	B	76	scene	indoor	1	0.5430378392338753
52.50538799492642	1	prelearning	violation	1	B	27	scene	outdoor	1	0.5440797889605165
55.5053315279074	1	prelearning	nonviolation	1	B	78	scene	indoor	1	0.5681311381049454
58.50530520500615	1	prelearning	nonviolation	1	A	74	scene	outdoor	1	0.6061715767718852
61.50525481579825	1	prelearning	violation	1	A	32	scene	indoor	n/a	n/a
64.50521823903546	1	prelearning	nonviolation	1	B	80	scene	indoor	1	0.5922381170094013
67.50518332375214	1	prelearning	nonviolation	1	B	79	scene	outdoor	1	0.5422784863039851
70.50513936579226	1	prelearning	violation	1	B	32	scene	outdoor	1	0.5113280052319169
73.50510579580441	1	prelearning	violation	1	B	31	scene	indoor	1	0.5873583401553333
76.50505301868543	1	prelearning	violation	1	B	29	scene	indoor	1	0.6833863370120525
79.50502860266717	1	prelearning	nonviolation	1	B	77	scene	outdoor	1	1.0654319720342755
82.50498283002527	1	prelearning	nonviolation	1	B	74	scene	outdoor	1	0.5594818666577339
85.50494593800977	1	prelearning	nonviolation	1	A	77	scene	outdoor	1	0.6265239617787302
88.50489458581433	1	prelearning	nonviolation	1	A	79	scene	indoor	1	0.6126000569202006
91.50485627492891	1	prelearning	violation	1	B	30	scene	indoor	1	1.2746141189709306
94.50483344262466	1	prelearning	violation	1	B	26	scene	indoor	1	0.6336383633315563
97.50478303898127	1	prelearning	nonviolation	1	B	73	scene	indoor	1	0.6896885079331696
100.50473846402019	1	prelearning	violation	1	A	31	scene	indoor	1	0.5837273309007287
103.50469460897148	1	prelearning	nonviolation	1	A	75	scene	indoor	1	0.8808018690906465
106.50465697981414	1	prelearning	violation	1	A	29	scene	outdoor	1	0.7448119898326695
109.50462599704042	1	learning	violation	2	A	25	scene	outdoor	1	0.6657635238952935
112.50458135688677	1	learning	violation	2	B	25	scene	outdoor	1	0.8998879091814159
115.50454066786915	1	learning	nonviolation	2	A	73	scene	outdoor	1	0.606925908010453
118.50449877185748	1	learning	nonviolation	2	B	73	scene	indoor	1	0.6739839529618621
121.50445465696976	1	learning	violation	2	A	26	scene	outdoor	1	0.6010163417086005
124.50441411975771	1	learning	violation	2	B	26	scene	indoor	1	0.6360569689422846
127.50437547499314	1	learning	nonviolation	2	A	74	scene	outdoor	1	0.7050285227596759
130.50434091268107	1	learning	nonviolation	2	B	74	scene	outdoor	1	0.5661326199769974
133.50429939385504	1	learning	nonviolation	2	A	75	scene	indoor	1	0.6381704430095851
136.50426641106606	1	learning	nonviolation	2	B	75	scene	outdoor	1	0.5792055549100041
139.504213929642	1	learning	nonviolation	2	A	76	scene	indoor	1	0.8731726803816855
142.50418165884912	1	learning	nonviolation	2	B	76	scene	indoor	1	0.6062882449477911
145.50413506384942	1	learning	violation	2	A	27	scene	outdoor	1	0.5253373980522156
148.50409798091275	1	learning	violation	2	B	27	scene	outdoor	1	0.5183523157611489
151.50405418360606	1	learning	violation	2	A	28	scene	indoor	0	1.0144144571386278
154.5040280530229	1	learning	violation	2	B	28	scene	outdoor	1	0.4434451218694449
157.5039786058478	1	learning	violation	3	A	26	scene	outdoor	1	0.5194953810423613
160.50395867601037	1	learning	violation	3	B	26	scene	indoor	1	0.5905204550363123
163.50388588476926	1	learning	violation	2	A	29	scene	outdoor	1	0.5565786310471594
166.503863199614	1	learning	violation	2	B	29	scene	indoor	1	0.70560367917642
169.50380163872615	1	learning	nonviolation	3	A	75	scene	indoor	1	0.5236758822575212
172.5037838560529	1	learning	nonviolation	3	B	75	scene	outdoor	1	0.5136061897501351
175.5037343297154	1	learning	nonviolation	3	A	73	scene	outdoor	1	0.7227313038893044
178.50370286405087	1	learning	nonviolation	3	B	73	scene	indoor	1	0.6127950628288089
181.50364297861236	1	learning	nonviolation	3	A	76	scene	indoor	1	0.6058277073316276
184.5036245766096	1	learning	nonviolation	3	B	76	scene	indoor	1	0.5768443704582751
187.50357407098642	1	learning	nonviolation	3	A	74	scene	outdoor	1	0.5878935176879168
190.50352971861142	1	learning	nonviolation	3	B	74	scene	outdoor	1	0.7559509603306651
193.5034958636388	1	learning	violation	3	A	27	scene	outdoor	1	0.6429842370562255
196.5034522446804	1	learning	violation	3	B	27	scene	outdoor	1	0.6040304712951183
199.503414040897	1	learning	violation	3	A	25	scene	outdoor	1	0.7829868029803038
202.50337246665728	1	learning	violation	3	B	25	scene	outdoor	1	0.5821039793081582
205.5033274339512	1	learning	nonviolation	2	A	77	scene	outdoor	1	0.5400799820199609
208.5033020270057	1	learning	nonviolation	2	B	77	scene	outdoor	1	0.5501684066839516
211.5032461150549	1	learning	nonviolation	4	A	75	scene	indoor	1	0.4382371506653726
214.5032120239921	1	learning	nonviolation	4	B	75	scene	outdoor	1	0.5932665918953717
217.5031741159037	1	learning	violation	4	A	26	scene	outdoor	1	0.5603224211372435
220.50312502263114	1	learning	violation	4	B	26	scene	indoor	1	0.5543343550525606
223.503096092958	1	learning	violation	2	A	30	scene	indoor	1	0.5943880816921592
226.50304996501652	1	learning	violation	2	B	30	scene	indoor	1	0.8244323879480362
229.4863256807439	1	learning	nonviolation	4	A	76	scene	indoor	1	0.566083743236959
232.48628610186285	1	learning	nonviolation	4	B	76	scene	indoor	1	0.657199886161834
235.50291641987857	1	learning	violation	3	A	29	scene	outdoor	1	0.5185561077669263
238.48620192101228	1	learning	violation	3	B	29	scene	indoor	1	0.6992957359179854
241.48616116587075	1	restudy	nonviolation	5	B	75	scene	outdoor	1	0.5333233107812703
244.48612203495574	1	learning	nonviolation	4	A	74	scene	outdoor	1	0.635363410692662
247.48608093569052	1	learning	nonviolation	4	B	74	scene	outdoor	1	0.594421842135489
250.4860413409769	1	violation	violation	5	A	26	scene	outdoor	1	0.6874403730034828
253.48600849183282	1	violation	violation	1	X	26	face	female	1	0.7584804999642074
256.4859642386436	1	learning	violation	3	A	28	scene	indoor	0	0.5775438053533435
259.4859203309752	1	learning	violation	3	B	28	scene	outdoor	1	0.6055629560723901
262.4858889868483	1	learning	nonviolation	3	A	77	scene	outdoor	1	0.5965166380628943
265.4858420197852	1	learning	nonviolation	3	B	77	scene	outdoor	1	0.7006519138813019
268.48580094380304	1	learning	violation	4	A	29	scene	outdoor	1	0.6926016258075833
271.4857611260377	1	learning	violation	4	B	29	scene	indoor	1	0.5937239467166364
274.48572537396103	1	learning	nonviolation	2	A	78	scene	outdoor	1	0.6317620477639139
277.4856837550178	1	learning	nonviolation	2	B	78	scene	indoor	1	0.6787550495937467
280.4856421528384	1	learning	nonviolation	4	A	73	scene	outdoor	1	0.6078511369414628
283.4855981450528	1	learning	nonviolation	4	B	73	scene	indoor	1	0.5488903378136456
286.4855588078499	1	restudy	nonviolation	5	B	76	scene	indoor	1	0.5498432707972825
289.4855233938433	1	restudy	nonviolation	6	B	75	scene	outdoor	1	0.5049682450480759
292.4854780007154	1	learning	violation	4	A	27	scene	outdoor	1	0.4860156183131039
295.4854352758266	1	learning	violation	4	B	27	scene	outdoor	1	0.5610641199164093
298.48539833305404	1	learning	violation	2	A	31	scene	indoor	1	0.8101011635735631
301.4853584980592	1	learning	violation	2	B	31	scene	indoor	1	0.5721358167938888
304.48531775083393	1	restudy	nonviolation	5	B	74	scene	outdoor	1	0.4851315398700535
307.48527549486613	1	learning	violation	4	A	25	scene	outdoor	1	0.5452153608202934
310.4852339630015	1	learning	violation	4	B	25	scene	outdoor	1	0.6332294489257038
313.48519194498664	1	restudy	nonviolation	6	B	76	scene	indoor	1	0.5312986266799271
316.4851538739167	1	learning	violation	3	A	30	scene	indoor	1	0.5612655328586698
319.4851092649624	1	learning	violation	3	B	30	scene	indoor	1	0.7743825218640268
322.48507054988295	1	restudy	violation	5	B	26	scene	indoor	1	0.5503489850088954
325.48503184784204	1	learning	nonviolation	2	A	79	scene	indoor	1	0.6504585039801896
328.48499095998704	1	learning	nonviolation	2	B	79	scene	outdoor	1	0.435507598798722
331.48494551097974	1	learning	violation	2	A	32	scene	indoor	1	0.6005506287328899
334.48490791674703	1	learning	violation	2	B	32	scene	outdoor	1	0.4885896039195359
337.4848666307516	1	restudy	nonviolation	6	B	74	scene	outdoor	1	0.7846346809528768
340.48482760973275	1	learning	nonviolation	3	A	78	scene	outdoor	1	0.7406659121625125
343.48478606762365	1	learning	nonviolation	3	B	78	scene	indoor	1	0.7157120332121849
346.48476344579836	1	violation	violation	5	A	29	scene	outdoor	1	0.6007043439894915
349.4847264830023	1	violation	violation	1	X	29	face	female	1	0.8237701086327434
352.4846725277602	1	violation	violation	5	A	27	scene	outdoor	1	0.5948250913061202
355.48465049266815	1	violation	violation	1	X	27	face	male	1	0.5638474971055984
358.48457946069533	1	learning	nonviolation	4	A	77	scene	outdoor	1	0.5929384031333029
361.48456406267366	1	learning	nonviolation	4	B	77	scene	outdoor	1	0.5939396522007883
364.48450720077386	1	learning	violation	4	A	28	scene	indoor	0	0.594994175247848
367.4844764908776	1	learning	violation	4	B	28	scene	outdoor	1	0.5439652558416128
370.4844266609289	1	violation	violation	6	A	26	scene	outdoor	1	0.5460829888470471
373.48439245205367	1	violation	violation	1	Y	26	face	female	1	0.6361106839030981
376.48433997062966	1	restudy	violation	5	B	27	scene	outdoor	1	0.6501609743572772
379.4843011707999	1	learning	nonviolation	3	A	79	scene	indoor	1	0.5002029221504927
382.4842587038874	1	learning	nonviolation	3	B	79	scene	outdoor	1	0.6892411489970982
385.4842306007631	1	restudy	nonviolation	5	B	73	scene	indoor	1	0.8002779548987746
388.4841785426252	1	learning	nonviolation	2	A	80	scene	indoor	1	0.6763271479867399
391.48414236679673	1	learning	nonviolation	2	B	80	scene	indoor	1	0.8883547838777304
394.4841008880177	1	violation	violation	6	A	27	scene	outdoor	1	0.6284047886729239
397.48406609566877	1	violation	violation	1	Y	27	face	male	1	0.7133634593337774
400.4840216566809	1	violation	violation	5	A	25	scene	outdoor	1	0.4654790293425322
403.4839778319001	1	violation	violation	1	X	25	face	male	1	0.5504527990706265
406.4839423946105	1	learning	violation	3	A	31	scene	indoor	1	0.774484793189913
409.48390903603286	1	learning	violation	3	B	31	scene	indoor	1	0.7045954749919474
412.4838562388904	1	learning	violation	3	A	32	scene	indoor	1	0.4956568549387157
415.4838117947802	1	learning	violation	3	B	32	scene	outdoor	1	0.5146800489164889
418.4837743206881	1	learning	violation	4	A	30	scene	indoor	1	0.5326528293080628
421.4837424596772	1	learning	violation	4	B	30	scene	indoor	1	0.5517677883617579
424.48369251005346	1	learning	nonviolation	4	A	78	scene	outdoor	1	0.5288111357949674
427.48366422392434	1	learning	nonviolation	4	B	78	scene	indoor	1	0.5498020770028234
430.48361369175836	1	restudy	violation	5	B	29	scene	indoor	1	0.5028215562924743
433.4835803378372	1	learning	violation	4	A	31	scene	indoor	1	0.5329332980327308
436.48352484684443	1	learning	violation	4	B	31	scene	indoor	1	0.5689825848676264
439.48348897369584	1	restudy	nonviolation	5	B	77	scene	outdoor	1	0.4459914839826524
442.483459842857	1	learning	nonviolation	3	A	80	scene	indoor	1	0.6990547231398523
445.48341390583664	1	learning	nonviolation	3	B	80	scene	indoor	1	0.6940933298319578
448.48336386773735	1	learning	violation	4	A	32	scene	indoor	1	0.7021509269252421
451.48332515964285	1	learning	violation	4	B	32	scene	outdoor	1	0.5281870891340077
454.4832853400149	1	violation	violation	5	A	28	scene	indoor	0	0.5262290639802814
457.4832460540347	1	violation	violation	1	X	28	face	male	1	0.5212730658240616
460.4832085929811	1	restudy	nonviolation	6	B	73	scene	indoor	1	0.5763037446886301
463.4831622708588	1	restudy	violation	6	B	26	scene	indoor	1	0.6013560849241912
466.4831198449248	1	restudy	violation	6	B	27	scene	outdoor	1	0.6603190051391721
469.48308698972687	1	learning	nonviolation	4	A	80	scene	indoor	1	0.5464260359294713
472.48304959060624	1	learning	nonviolation	4	B	80	scene	indoor	1	0.5714690992608666
475.48300622962415	1	violation	violation	5	A	32	scene	indoor	1	0.7335126521065831
478.4829686079174	1	violation	violation	1	X	32	face	male	1	0.7425309061072767
481.48292525904253	1	learning	nonviolation	4	A	79	scene	indoor	1	0.9225908648222684
484.48287947569037	1	learning	nonviolation	4	B	79	scene	outdoor	1	0.7036359193734825
487.48284939769655	1	violation	violation	5	A	30	scene	indoor	1	0.8816688819788396
490.4827969488688	1	violation	violation	1	X	30	face	female	0	0.6157469041645527
493.48275737464434	1	violation	violation	6	A	29	scene	outdoor	1	0.7457283693365753
496.48272553505376	1	violation	violation	1	Y	29	face	female	1	0.7227926747873425
499.48268561204895	1	restudy	nonviolation	5	B	78	scene	indoor	1	0.6138406717218459
502.4826417388394	1	restudy	violation	5	B	25	scene	outdoor	1	0.5788759230636059
505.482591685839	1	restudy	nonviolation	5	B	80	scene	indoor	1	0.7459448128938675
508.4825478158891	1	violation	violation	5	A	31	scene	indoor	1	0.5379712637513876
511.48251339700073	1	violation	violation	1	X	31	face	female	1	0.6009268998168409
514.4824693538249	1	restudy	nonviolation	6	B	77	scene	outdoor	1	0.4940504091791809
517.482444528956	1	restudy	violation	5	B	32	scene	outdoor	1	0.5100796236656606
520.4823885187507	1	restudy	nonviolation	6	B	80	scene	indoor	1	0.5531303682364523
523.4823650699109	1	violation	violation	6	A	25	scene	outdoor	1	0.4541425169445574
526.4823098038323	1	violation	violation	1	Y	25	face	male	1	0.6762065067887306
529.4822679809295	1	restudy	violation	5	B	28	scene	outdoor	1	0.4122376828454435
532.4822270707226	1	restudy	violation	5	B	31	scene	indoor	1	0.5742954220622778
535.4821906336583	1	restudy	violation	5	B	30	scene	indoor	1	0.5073258052580059
538.482145041693	1	violation	violation	6	A	28	scene	indoor	0	0.4463421832770109
541.4821056257933	1	violation	violation	1	Y	28	face	male	1	0.5574189801700413
544.4820658536628	1	violation	violation	6	A	32	scene	indoor	1	0.6114521031267941
547.4820222067647	1	violation	violation	1	Y	32	face	male	1	0.5644959663040936
550.4819816946983	1	violation	violation	6	A	31	scene	indoor	1	0.6505425400100648
553.4819407616742	1	violation	violation	1	Y	31	face	female	1	0.743511519394815
556.481906061992	1	restudy	violation	6	B	25	scene	outdoor	1	0.5796194048598409
559.4818549337797	1	violation	violation	6	A	30	scene	indoor	1	0.6216662139631808
562.4818206229246	1	violation	violation	1	Y	30	face	female	1	0.6677013230510056
565.4817792517133	1	restudy	nonviolation	6	B	78	scene	indoor	0	1.155744724906981
568.481731491629	1	restudy	nonviolation	5	B	79	scene	outdoor	1	0.5137925492599607
571.4816930177623	1	restudy	violation	6	B	32	scene	outdoor	1	0.63483059220016
574.4816593807192	1	restudy	violation	6	B	29	scene	indoor	1	0.5888665849342942
577.4816197180189	1	restudy	violation	6	B	30	scene	indoor	1	0.6709100198931992
580.4815789340064	1	restudy	nonviolation	6	B	79	scene	outdoor	1	0.8499536807648838
583.4815311790444	1	restudy	violation	6	B	31	scene	indoor	1	0.5339980819262564
586.4814930199645	1	restudy	violation	6	B	28	scene	outdoor	1	0.7859878749586642
