onset	duration	trial_type	condition	response_accuracy	response_time
13.499328831007006	2.5	B	violation	0	1.3750402619771194
16.49933016099385	2.5	A	nonviolation	1	0.7940450799942482
19.499322208983358	2.5	B	violation	0	0.8680483430216555
22.499217109987512	2.5	A	violation	1	1.070153975015273
25.49917386699235	2.5	A	nonviolation	0	1.0491941859945657
28.49913384098909	2.5	A	nonviolation	1	0.8212387209932785
31.49909428198589	2.5	A	violation	1	0.9562789100164082
34.49907189799705	2.5	A	violation	0	0.8913045619847253
37.499021964991705	2.5	A	violation	1	0.6883489059982821
40.49899272399489	2.5	B	nonviolation	1	1.1923802669916768
43.49894493399188	2.5	B	violation	1	1.016457140998682
46.49891149299219	2.5	A	nonviolation	1	0.8594669720041566
49.4988757579995	2.5	B	violation	1	0.7894382819940802
52.49883717100602	2.5	A	violation	0	0.9465367239899932
55.49879693498952	2.5	B	violation	1	1.1445807139971294
58.49874487699708	2.5	A	violation	1	0.9206344870035535
61.498704583005754	2.5	A	violation	0	0.8736761139880401
64.49866412699339	2.5	B	violation	0	1.2877134770096743
67.49863063299563	2.5	B	nonviolation	1	0.8497468190034851
70.49860548699506	2.5	A	nonviolation	1	0.8907734100066591
73.49856055199052	2.5	B	violation	1	0.8668143370014151
76.4985190150037	2.5	B	nonviolation	0	0.8598634679801762
79.49846600700403	2.5	B	nonviolation	1	0.9249135619902518
82.49844084898359	2.5	B	nonviolation	1	0.8309394880197942
85.49839156999951	2.5	B	nonviolation	0	1.0959941929904744
88.49835928098764	2.5	A	nonviolation	1	0.6620193550188559
91.49831105300107	2.5	B	nonviolation	1	0.8640747350000311
94.49827391500004	2.5	B	nonviolation	1	1.0161098759854212
97.49822724700786	2.5	B	violation	0	0.7061543960007839
100.49818688398227	2.5	A	violation	1	0.8711231530178338
103.49815365299581	2.5	A	violation	1	0.8332268639933318
106.4981187719968	2.5	A	violation	1	0.9342640459944959
109.49807507800871	2.5	B	nonviolation	1	0.9283019609865732
112.49802919998184	2.5	A	violation	1	0.8643563650257421
115.49799125699793	2.5	B	violation	0	1.2463933890103365
118.49795088800602	2.5	B	nonviolation	0	0.692358432977926
121.49791518598795	2.5	A	nonviolation	1	0.7774928680155426
124.49787392499277	2.5	B	violation	0	0.8325125949922949
127.49783285000014	2.5	B	nonviolation	1	0.7765497209911701
130.49778901500395	2.5	B	violation	0	0.8685931429790799
133.49774751299992	2.5	B	nonviolation	1	0.985636366996914
136.49771446699742	2.5	A	nonviolation	1	0.978668531985022
139.49767034698743	2.5	A	nonviolation	1	1.1017177519970571
142.49762972199827	2.5	A	nonviolation	1	0.9557589830073994
145.49760069898912	2.5	A	violation	1	0.9067862500087358
148.49754936998943	2.5	A	nonviolation	1	1.0628365320153534
151.4975131469837	2.5	A	nonviolation	1	0.913875223021023
154.49747893598396	2.5	B	violation	1	1.2319130960095208
157.49742792500186	2.5	A	nonviolation	0	0.9869617990043481
160.49739244600642	2.5	A	violation	1	1.1839996629860252
163.49734922000792	2.5	A	violation	1	0.9250408999796492
166.49730895200628	2.5	B	nonviolation	0	1.0690825700003188
169.4972721670056	2.5	B	violation	0	0.9511242099979428
172.49723183599414	2.5	A	violation	1	0.7000822350091767
175.4971925569989	2.5	B	nonviolation	1	1.130201717984164
178.49715728798762	2.5	B	violation	1	0.8702379250025842
181.49710606699227	2.5	A	nonviolation	1	0.9202892479952424
184.4970675829973	2.5	B	nonviolation	0	0.943329261004692
187.4970265000011	2.5	B	nonviolation	0	0.6273686210042797
190.4969869380002	2.5	B	nonviolation	1	0.8564106039993931
193.4969575989817	2.5	A	violation	1	0.6674338430166245
196.49690420800468	2.5	A	nonviolation	1	1.3114975939970464
199.4968654080003	2.5	A	violation	1	0.6245241489959881
202.49682981098888	2.5	A	violation	1	1.0774873970076442
205.49678591298292	2.5	B	nonviolation	1	0.8856140470015816
208.4967517750047	2.5	B	violation	0	0.9186556339845992
211.49671048898014	2.5	B	violation	0	0.7826182500284631
214.49666454899125	2.5	B	violation	1	0.971729517012136
217.49662962098958	2.5	B	nonviolation	1	0.8237671270035207
220.49658880798958	2.5	A	nonviolation	1	1.0148112280003259
223.4965494569915	2.5	A	nonviolation	1	1.0258694750082211
226.49650280800412	2.5	A	nonviolation	1	0.8918973569816444
229.49646264198242	2.5	A	nonviolation	1	0.6829301990219392
232.49642927999957	2.5	A	violation	1	0.9939675759815144
235.49638376600345	2.5	A	violation	1	0.7530124140030239
238.49634178800625	2.5	B	nonviolation	1	0.978046418982558
241.49629992299012	2.5	A	violation	1	0.7450995359977242
244.4962667269865	2.5	A	violation	1	1.0911318809958177
247.4962282179913	2.5	B	violation	0	0.8561802649928723
250.4961812800029	2.5	B	nonviolation	1	1.0602194109815173
253.49614306900185	2.5	A	nonviolation	1	0.8182583960006014
256.4961131539894	2.5	A	violation	1	0.7702954240085091
259.4960630130081	2.5	B	violation	1	1.0303374199720563
262.49602641398087	2.5	A	nonviolation	1	1.36137752502691
265.4959863559925	2.5	B	nonviolation	0	0.8594444069894962
268.49594019199145	2.5	B	nonviolation	1	0.9144648720102849
271.49590398700093	2.5	A	nonviolation	1	0.5675041479989886
274.4958700159914	2.5	B	violation	0	0.9155317400000058
277.495829063002	2.5	A	violation	0	1.1585758079891093
280.49578354199184	2.5	A	nonviolation	1	0.9856199150090106
283.4957385559974	2.5	B	violation	0	0.8866656860045623
286.49569799398887	2.5	B	violation	0	1.0307097010081634
289.4956618589931	2.5	B	violation	1	1.1637434090080203
292.4956277029996	2.5	A	nonviolation	1	0.9187796220066956
295.49558759698994	2.5	B	violation	1	0.8598179230175447
298.49553657398786	2.5	B	nonviolation	0	0.925785558996722
301.49550171598094	2.5	B	nonviolation	0	1.231905741005903
304.4954573079885	2.5	B	violation	0	0.8309478730079718
307.4954158889886	2.5	B	nonviolation	0	1.0279957710008605
310.49537976499414	2.5	B	nonviolation	1	0.7430279130057897
313.49533380000497	2.5	B	nonviolation	1	0.8630766479764134
316.49529985000845	2.5	A	violation	1	0.8441119749913923
319.49525749299215	2.5	A	nonviolation	1	0.8781523680081591
322.4952136159991	2.5	B	violation	0	0.8691944199963473
325.4951838809938	2.5	A	violation	1	0.6632272290007677
328.4951334949874	2.5	B	violation	0	1.0062795059930068
331.49509468700853	2.5	A	nonviolation	1	1.0013194039929658
334.4950518319965	2.5	B	nonviolation	1	0.8263576919853222
337.49501338999835	2.5	B	violation	0	0.7613991769903805
340.494972038985	2.5	B	nonviolation	0	1.0824394310184289
343.4949410760018	2.5	B	nonviolation	1	0.8974719019897748
346.49489181800163	2.5	B	violation	1	0.7244416500034276
349.4948557599855	2.5	B	violation	0	0.8985594359983224
352.4948221530067	2.5	B	violation	0	0.6735892689903267
355.49477009198745	2.5	A	nonviolation	1	0.7116410110029392
358.4947341039952	2.5	A	violation	1	1.0516809049877338
361.4946880009957	2.5	A	violation	1	0.8037273469963111
364.4946563490085	2.5	B	violation	0	1.0327795779739972
367.49462362899794	2.5	A	nonviolation	1	0.8077939939976204
370.4945720770047	2.5	A	nonviolation	1	0.9798485699866432
373.49453162099235	2.5	A	nonviolation	1	0.9868859389971476
376.49448955999117	2.5	B	violation	0	0.9649286789936014
379.4944517829863	2.5	A	violation	1	1.0259713740088046
382.49440533900633	2.5	B	nonviolation	1	0.9690154290001374
385.49436663699447	2.5	A	violation	1	0.8710511529934593
388.4943366259977	2.5	A	nonviolation	1	0.6450924759847112
391.49428953498136	2.5	A	violation	1	0.7821323380048852
394.4942431259842	2.5	A	nonviolation	1	0.7041805720073171
397.49420218600426	2.5	A	nonviolation	1	0.7052148049988318
400.4941661779885	2.5	A	nonviolation	1	0.936251392995473
403.477444810007	2.5	A	nonviolation	1	1.041976603999501
406.49408758099884	2.5	A	violation	0	0.9263401239877568
409.4773671889852	2.5	B	nonviolation	0	1.3690542090043891
412.4773326930008	2.5	B	nonviolation	0	0.8560856359836179
415.49396563999466	2.5	B	nonviolation	0	0.8464544710004702
418.4939249879972	2.5	A	violation	1	0.9794958060083444
421.4772102359857	2.5	A	violation	1	0.9912127180141396
424.47716745099746	2.5	A	violation	1	1.405256873986218
427.4771290869976	2.5	B	nonviolation	1	0.9432983800070359
430.4770897330018	2.5	A	nonviolation	1	0.9433353949862068
433.4770459379943	2.5	B	violation	0	1.0823774689924903
436.47700635899673	2.5	A	violation	1	1.192414513992844
439.47697649899055	2.5	B	violation	1	0.8224506510014179
442.47693269900634	2.5	B	violation	0	0.8354928129992913
445.47688777098665	2.5	A	nonviolation	1	0.5855385230097454
448.47684879100416	2.5	B	violation	1	0.8215851080021821
451.476810586988	2.5	A	violation	1	0.9426448960148264
454.4767584829824	2.5	B	nonviolation	1	0.6276704960037023
457.4767230929865	2.5	A	violation	1	1.2427036490116734
460.47668351299933	2.5	A	nonviolation	1	0.5897410159814171
463.47664862099924	2.5	A	nonviolation	1	0.5497796880081296
466.47660052499845	2.5	A	violation	1	0.8298260580049828
469.47656614900916	2.5	B	violation	0	0.7568618239893112
472.4765196919907	2.5	A	violation	1	0.55292478701449
475.4764860349824	2.5	A	nonviolation	1	0.6269443950150162
478.4764484580082	2.5	A	nonviolation	1	1.0139806029910687
481.4764024379838	2.5	B	violation	0	0.9380294360162224
484.4763574370008	2.5	A	violation	1	0.6300738999852911
487.47632842199533	2.5	B	nonviolation	1	0.7421120690123644
490.47627649898635	2.5	A	violation	1	1.093154972011689
493.4762466639804	2.5	B	nonviolation	0	0.7901826310262551
496.4762107539864	2.5	A	nonviolation	1	0.7942225620208774
499.4761592769937	2.5	A	violation	1	0.7002485890116077
502.4761298329977	2.5	B	violation	0	0.606307887006551
505.4760873839841	2.5	A	nonviolation	1	1.056345096003497
508.47603240900213	2.5	B	nonviolation	0	0.8624041699804366
511.47599439800246	2.5	B	nonviolation	0	1.1314724609837867
514.4759684150049	2.5	A	violation	1	0.8484692959755193
517.4759308960056	2.5	A	nonviolation	1	0.9395040059753228
520.475874116004	2.5	A	nonviolation	1	0.7245517089904752
523.4758449950023	2.5	B	violation	0	1.1005918409791775
526.4757959469862	2.5	B	violation	1	0.7536407070001587
529.4757639289892	2.5	B	nonviolation	0	0.6356711169937626
532.475731849001	2.5	B	nonviolation	1	1.033701601991197
535.4756771409884	2.5	B	violation	1	0.5527678540092893
538.4756366100047	2.5	A	violation	1	0.5848009600013029
541.4755949880055	2.5	B	nonviolation	1	0.6688411399954929
544.4755656890047	2.5	A	nonviolation	1	0.6608684620005079
547.4755116739834	2.5	B	nonviolation	1	0.7979240750137251
550.4754738179909	2.5	A	nonviolation	1	0.8049648360174615
553.4754403489933	2.5	B	nonviolation	1	1.1080019010114484
556.4753930860023	2.5	A	violation	1	0.7830522359872703
559.475371581997	2.5	A	violation	1	0.762071734003257
562.475316756987	2.5	A	violation	1	0.6971247850160579
565.4752709140013	2.5	B	nonviolation	0	1.08717316298862
568.4752276180079	2.5	B	violation	1	1.1192120839841664
571.4751905220038	2.5	B	nonviolation	1	1.0222560279944446
574.4751486220048	2.5	A	nonviolation	0	0.6502902669890318
577.4751138099817	2.5	B	violation	1	0.7583265860157553
580.4750636210082	2.5	B	violation	1	0.7143775679869577
583.4750214829983	2.5	B	violation	1	0.7824215139844455
586.4749906229845	2.5	B	violation	0	0.9034510689962192
