onset	duration	trial_type	condition	repetition	pairmate	pairID	category	subcategory	response_accuracy	response_time
13.506170053995447	1	postlearning	violation	2	n/a	33	face	female	1	0.4733078980061691
16.506109638983613	1	postlearning	violation	2	n/a	10	face	female	1	0.471373863023473
19.506088639987862	1	postlearning	violation	2	n/a	48	face	male	1	0.3484172910102643
22.506042502005588	1	postlearning	violation	2	n/a	40	face	female	1	0.3964406989980489
25.506008563999785	1	postlearning	violation	2	n/a	18	face	female	1	0.3904743109887932
28.50596368598053	1	postlearning	violation	2	n/a	46	face	female	1	0.37751769201713614
31.505935755994873	1	postlearning	violation	2	n/a	20	face	female	1	0.394550094002625
34.50588624199736	1	postlearning	violation	2	n/a	9	face	male	1	0.3875986420025584
37.50585613099975	1	postlearning	violation	2	n/a	39	face	male	1	0.4366342719877139
40.505809628986746	1	postlearning	violation	2	n/a	24	face	female	1	0.4186706710024737
43.505771992000525	1	postlearning	violation	2	n/a	22	face	female	1	0.4617144890071359
46.50573778100079	1	postlearning	violation	2	n/a	42	face	male	1	0.4277438689896371
49.50568437000038	1	postlearning	violation	2	n/a	4	face	male	1	0.4968004630063661
52.50564214098267	1	postlearning	violation	2	n/a	16	face	female	1	0.4658399879990611
55.50561816600385	1	postlearning	violation	2	n/a	28	face	female	1	0.4297889269946609
58.505573539005134	1	postlearning	violation	2	n/a	8	face	male	1	0.4449109809938818
61.505527470988454	1	postlearning	violation	2	n/a	41	face	female	1	0.4249605880177114
64.50549433298875	1	postlearning	violation	2	n/a	37	face	female	1	0.4449893620039802
67.50545479098218	1	postlearning	violation	2	n/a	44	face	female	1	0.4220350810210221
70.50540829898091	1	postlearning	violation	2	n/a	42	face	male	1	0.3670820710249245
73.5053678879922	1	postlearning	violation	2	n/a	34	face	male	1	0.7391190679918509
76.50532853900222	1	postlearning	violation	2	n/a	17	face	male	1	0.4601584269839805
79.50528767099604	1	postlearning	violation	2	n/a	15	face	female	1	0.5562029560096562
82.50525519499206	1	postlearning	violation	2	n/a	48	face	male	1	0.5812326350132935
85.50520872799098	1	postlearning	violation	2	n/a	43	face	male	1	0.4722815440036357
88.50516791298288	1	postlearning	violation	2	n/a	43	face	male	1	0.7943235730053857
91.50512714599607	1	postlearning	violation	2	n/a	41	face	female	1	0.4693653309950605
94.50509056900046	1	postlearning	violation	2	n/a	40	face	female	1	0.5264034110005014
97.50504976898084	1	postlearning	violation	2	n/a	22	face	female	1	0.43644125302671455
100.50502164798672	1	postlearning	violation	2	n/a	8	face	male	1	0.4284707290062215
103.50497064000228	1	postlearning	violation	2	n/a	27	face	male	1	0.6134975820023101
106.50493694798206	1	postlearning	violation	2	n/a	13	face	male	1	0.498556433012709
109.50488987198332	1	postlearning	violation	2	n/a	1	face	female	1	0.5146015650243498
112.504859387991	1	postlearning	violation	2	n/a	30	face	female	1	0.51963581200107
115.50482088199352	1	postlearning	violation	2	n/a	27	face	male	1	0.4236722089990508
118.5047795549908	1	postlearning	violation	2	n/a	29	face	female	1	0.3837140660034493
121.50472896799327	1	postlearning	violation	2	n/a	47	face	male	1	0.3817679439962376
124.50469454398262	1	postlearning	violation	2	n/a	12	face	male	1	0.6307993550144602
127.50465478198021	1	postlearning	violation	2	n/a	2	face	female	1	0.4248400430078618
130.5046080769971	1	postlearning	violation	2	n/a	26	face	male	1	0.3928907520021312
133.50457486099913	1	postlearning	violation	2	n/a	13	face	male	1	0.4609247570042498
136.5045230840042	1	postlearning	violation	2	n/a	14	face	female	1	0.40997629598132335
139.50449208598002	1	postlearning	violation	2	n/a	7	face	male	1	0.4040041530097369
142.5044466139807	1	postlearning	violation	2	n/a	6	face	female	1	0.4359667450189591
145.50440551599604	1	postlearning	violation	2	n/a	35	face	female	1	0.4610927989997435
148.50436760400768	1	postlearning	violation	2	n/a	12	face	male	1	0.9441284939821344
151.50432447498315	1	postlearning	violation	2	n/a	5	face	male	1	0.4491723880055361
154.50429669499863	1	postlearning	violation	2	n/a	21	face	male	1	0.4162045420089271
157.5042487680039	1	postlearning	violation	2	n/a	10	face	female	1	0.5282515369763132
160.50420666698486	1	postlearning	violation	2	n/a	15	face	female	1	0.5132884100021329
163.50417186200502	1	postlearning	violation	2	n/a	25	face	male	1	0.4003302119963337
166.50413491699146	1	postlearning	violation	2	n/a	16	face	female	1	0.4163669690024108
169.50408209700254	1	postlearning	violation	2	n/a	23	face	male	1	0.492419580987189
172.50404533199617	1	postlearning	violation	2	n/a	19	face	male	1	0.4514566829893738
175.50400145200547	1	postlearning	violation	2	n/a	34	face	male	1	0.4355002079973929
178.50396291998914	1	postlearning	violation	2	n/a	38	face	male	1	0.41553476301487535
181.5039226310037	1	postlearning	violation	2	n/a	20	face	female	1	0.5385747789987363
184.5038895579928	1	postlearning	violation	2	n/a	11	face	male	1	0.5016156079946086
187.50384025700626	1	postlearning	violation	2	n/a	19	face	male	1	0.4126653239945881
190.50379935198	1	postlearning	violation	2	n/a	47	face	male	1	0.41070044101797976
193.5037603559904	1	postlearning	violation	2	n/a	36	face	male	1	0.4547672889893874
196.50371892700787	1	postlearning	violation	2	n/a	45	face	female	1	0.4427805369778071
199.50368381399312	1	postlearning	violation	2	n/a	7	face	male	1	0.6168220250110608
202.50363785598893	1	postlearning	violation	2	n/a	9	face	male	1	0.5808761299995239
205.50359869099339	1	postlearning	violation	2	n/a	25	face	male	1	0.4689124840078875
208.5035556879884	1	postlearning	violation	2	n/a	24	face	female	1	0.4979455310094636
211.5035164440051	1	postlearning	violation	2	n/a	6	face	female	1	0.4399856379895937
214.5034789220081	1	postlearning	violation	2	n/a	2	face	female	1	0.458023871993646
217.50343571600388	1	postlearning	violation	2	n/a	33	face	female	1	0.3830743989965413
220.5034034650016	1	postlearning	violation	2	n/a	29	face	female	1	0.3991039389802609
223.50335864999215	1	postlearning	violation	2	n/a	38	face	male	1	0.4221502000000328
226.50331613598973	1	postlearning	violation	2	n/a	3	face	female	1	0.4271934500138741
229.5032756899891	1	postlearning	violation	2	n/a	46	face	female	1	0.8821497810131405
232.50323363600185	1	postlearning	violation	2	n/a	14	face	female	1	0.4462775279826019
235.5031918839959	1	postlearning	violation	2	n/a	28	face	female	1	0.4822656539909076
238.50315305398544	1	postlearning	violation	2	n/a	18	face	female	1	0.4073832140129525
241.50311654500547	1	postlearning	violation	2	n/a	32	face	male	1	0.3963896129862405
244.5030719130009	1	postlearning	violation	2	n/a	1	face	female	1	0.4734373439860065
247.50303188199177	1	postlearning	violation	2	n/a	36	face	male	1	0.5664754869940225
250.5029901649977	1	postlearning	violation	2	n/a	31	face	female	1	0.5615216229925863
253.5029496579955	1	postlearning	violation	2	n/a	39	face	male	1	0.4185624799865764
256.50290945300367	1	postlearning	violation	2	n/a	35	face	female	1	0.3836036459833849
259.5028686549922	1	postlearning	violation	2	n/a	31	face	female	1	0.435644264012808
262.50283279299043	1	postlearning	violation	2	n/a	37	face	female	1	0.4336623580020387
265.50279041400063	1	postlearning	violation	2	n/a	32	face	male	1	0.5557246499811299
268.5027562250034	1	postlearning	violation	2	n/a	23	face	male	1	0.5166745729802642
271.50271280598827	1	postlearning	violation	2	n/a	45	face	female	1	0.4757995120016858
274.48598825899535	1	postlearning	violation	2	n/a	17	face	male	1	0.4895294379966799
277.50262895599013	1	postlearning	violation	2	n/a	11	face	male	1	0.4278826510126237
280.50258765698527	1	postlearning	violation	2	n/a	5	face	male	1	0.4769266330113169
283.50254898998537	1	postlearning	violation	2	n/a	4	face	male	1	0.4689626010076609
286.48583574700746	1	postlearning	violation	2	n/a	3	face	female	1	0.5006794679793529
289.48579775498365	1	postlearning	violation	2	n/a	26	face	male	1	0.5457182840036694
292.48574568598997	1	postlearning	violation	2	n/a	30	face	female	1	0.3577668690122664
295.4857153089833	1	postlearning	violation	2	n/a	21	face	male	1	0.40680426399922
298.4856740029936	1	postlearning	violation	2	n/a	44	face	female	1	0.327844482002547
