onset	duration	trial_type	condition	response_accuracy	response_time
13.507002834056037	2.5	A	violation	1	0.9499048199504614
16.506971660011914	2.5	A	violation	1	1.0539424640010109
19.506933324038986	2.5	B	nonviolation	1	1.0659677630173974
22.506894249003377	2.5	A	violation	1	1.058019245043397
25.5068548770505	2.5	B	violation	1	1.1890369919710793
28.506810265011158	2.5	B	violation	1	1.092100421024952
31.50677637505578	2.5	B	violation	1	0.9571387139731088
34.50674074603012	2.5	A	violation	1	0.6221827419940382
37.506700209050905	2.5	A	violation	1	0.7922180129680783
40.50665312103229	2.5	A	nonviolation	1	0.8552721890155226
43.5066214860417	2.5	B	violation	0	0.925293612992391
46.50657513004262	2.5	B	nonviolation	0	0.8793413309613243
49.50653480901382	2.5	A	violation	1	0.5953864119946957
52.50650342501467	2.5	A	nonviolation	1	0.6943436870351434
55.506461081036825	2.5	A	violation	1	0.7594648789963685
58.50641751900548	2.5	B	violation	1	0.7975011070375331
61.50637874705717	2.5	B	nonviolation	0	0.6415342299733311
64.50633616501	2.5	B	nonviolation	0	0.8075810800073668
67.50630644802004	2.5	B	violation	1	0.5356112130102701
70.50625992100686	2.5	A	nonviolation	1	0.5836573570268229
73.50622608303092	2.5	B	violation	0	0.7186887509888038
76.50618558900895	2.5	A	nonviolation	1	0.5527291230391711
79.50614293204853	2.5	A	nonviolation	1	0.6197754739550874
82.50609960802832	2.5	A	violation	1	0.671820427000057
85.50606335001065	2.5	B	nonviolation	0	1.0008549480116926
88.50602286105276	2.5	A	violation	1	0.8229103189660236
91.50598739902487	2.5	A	violation	1	0.8568586810142733
94.50594112003456	2.5	B	nonviolation	0	0.71797587396577
97.50590310205007	2.5	A	violation	1	0.8600203179521486
100.50586942001246	2.5	A	nonviolation	1	0.5930519900284708
103.50582940503956	2.5	A	nonviolation	1	0.711098467989359
106.50578455702637	2.5	B	nonviolation	0	0.678073832008522
109.50574387301458	2.5	B	violation	1	0.908182377985213
112.50571065704573	2.5	B	nonviolation	0	0.84721186500974
115.50566486205207	2.5	A	nonviolation	1	0.7082593700033613
118.50563164101914	2.5	A	nonviolation	1	0.6472932670149021
121.50557914405366	2.5	B	violation	0	0.6313402549712919
124.5055444590398	2.5	B	nonviolation	1	0.968381206970662
127.5055030680378	2.5	A	nonviolation	1	0.7914228269946761
130.50546598504295	2.5	A	violation	1	0.7274741739965975
133.5054308140534	2.5	A	nonviolation	1	0.5884958029491827
136.5053909960552	2.5	B	nonviolation	0	0.9975404259748756
139.50534521200458	2.5	A	nonviolation	1	0.5355821740231477
142.50530451902887	2.5	B	nonviolation	1	0.8676297329948284
145.5052725310088	2.5	B	violation	1	1.0036557150306178
148.5052327440353	2.5	B	violation	1	0.6996969539904967
151.50518577900948	2.5	B	nonviolation	0	0.6057439619908109
154.5051448610029	2.5	B	violation	0	0.8977061129990034
157.50510483304967	2.5	A	violation	1	0.9148244359530509
160.5050740930019	2.5	A	nonviolation	1	0.6108565450413153
163.50502424803562	2.5	A	violation	1	0.6019082120037638
166.50498466403224	2.5	B	violation	1	0.6709454290103167
169.50495113403304	2.5	A	nonviolation	1	0.5569899139809422
172.50491262803556	2.5	B	violation	0	0.6700216429890133
175.50486401800302	2.5	B	nonviolation	0	0.6380682320450433
178.5048244790523	2.5	A	violation	1	0.9071384159615264
181.50478565704543	2.5	A	nonviolation	1	0.8151515100034885
184.50474307005058	2.5	A	violation	1	0.5751916089793667
187.50470458302883	2.5	A	nonviolation	1	0.6822238669847138
190.5046638080385	2.5	A	nonviolation	1	0.5112221979652531
193.50463187805144	2.5	A	nonviolation	1	0.7212996059679426
196.50458369904663	2.5	B	nonviolation	1	0.8512237420072779
199.50454478705072	2.5	B	violation	1	0.6343860919587314
202.50450956803982	2.5	A	violation	1	0.6433029249892571
205.50446454004847	2.5	B	violation	0	0.6704723520088011
208.50442175503122	2.5	B	violation	0	0.693518796004355
211.48770372301811	2.5	A	nonviolation	1	0.6922348249936476
214.48766398703447	2.5	B	nonviolation	0	0.6742816939949989
217.504300383036	2.5	B	violation	1	0.6746542199980468
220.50426838302516	2.5	A	violation	1	0.6756707479944453
223.504228179052	2.5	A	violation	1	0.6326343269902281
226.5041772360564	2.5	B	nonviolation	0	0.7627632059738971
229.50414700305558	2.5	B	nonviolation	1	0.8817892939550802
232.4874251980218	2.5	A	violation	1	0.5803858949802816
235.4873874390032	2.5	B	violation	0	0.5255510650458746
238.48734468600014	2.5	A	nonviolation	1	0.7946024150005542
241.48730749002425	2.5	A	nonviolation	1	0.5326266069896519
244.48726636200442	2.5	A	violation	1	0.6926795360050164
247.48730363202046	2.5	A	nonviolation	1	0.7066390070249327
250.48717994004252	2.5	B	nonviolation	1	0.6937616149662063
253.48714179202216	2.5	B	nonviolation	1	0.7627200140268542
256.4871101500466	2.5	B	violation	0	0.784835745987948
259.4870626630145	2.5	B	violation	0	0.7288837379892357
262.4870206530323	2.5	B	violation	1	0.5899269030196592
265.48698461503955	2.5	B	nonviolation	1	0.6219586239894852
268.48694314301247	2.5	A	violation	1	0.6989956420147792
271.48695059900643	2.5	A	nonviolation	1	0.704995789041277
274.4868642070214	2.5	B	violation	0	0.8190825710189529
277.486835816002	2.5	A	nonviolation	1	0.5320383660146035
280.486783607048	2.5	A	violation	1	0.7611679429537617
283.4867420560331	2.5	B	nonviolation	0	0.8232058080029674
286.4867106370512	2.5	B	violation	1	0.8092296950053424
289.4866598170484	2.5	A	violation	1	0.857289730978664
292.4866263400181	2.5	B	nonviolation	1	0.9513240600354038
295.4865861190483	2.5	B	nonviolation	1	0.9193775999592616
298.48654701805214	2.5	B	nonviolation	0	0.9053939849836752
301.48649952403497	2.5	B	nonviolation	0	0.759411224978976
304.4864643930341	2.5	A	nonviolation	1	0.7354098670184612
307.4864188840147	2.5	B	violation	1	0.6695294789969921
310.4863851950504	2.5	B	nonviolation	1	0.7635608979617245
313.48633606603835	2.5	B	violation	1	0.7334932219819166
316.48630518402206	2.5	B	violation	1	0.7386526759946719
319.4863048270345	2.5	B	nonviolation	1	0.8455269680125639
322.4862179350457	2.5	A	violation	1	0.6367357450071722
325.4861765280366	2.5	B	nonviolation	1	0.7187713530147448
328.48613903700607	2.5	A	violation	1	0.760810099018272
331.4861171460361	2.5	A	nonviolation	1	0.6498362770071253
334.48606723605184	2.5	B	nonviolation	0	0.713886009005364
337.4860228050384	2.5	B	nonviolation	1	0.6749283180106431
340.4859800300328	2.5	A	violation	1	0.8319781289901584
343.4859363100258	2.5	A	violation	1	0.6180191829917021
346.48590747005073	2.5	A	violation	1	0.5590431899763644
349.48586212605005	2.5	A	nonviolation	1	0.6880910469917579
352.4858281130437	2.5	A	nonviolation	1	0.9051279199775308
355.4857773430412	2.5	A	nonviolation	1	0.6211808489752002
358.4857374679996	2.5	B	nonviolation	0	0.7772189370007254
361.4856967660016	2.5	B	nonviolation	0	0.8042625570087694
364.48566403600853	2.5	A	violation	1	0.5612892790231854
367.4856151810382	2.5	A	nonviolation	0	1.0483425349812023
370.48557891504606	2.5	B	violation	0	1.009377620997839
373.4855374210165	2.5	A	nonviolation	1	0.5414134850143455
376.48549722204916	2.5	A	violation	1	0.7924627979518846
379.4854524700204	2.5	A	nonviolation	1	0.7604835850070231
382.4854237030377	2.5	B	violation	0	0.8295367609825917
385.48537891003065	2.5	A	nonviolation	1	0.7175799129763618
388.4853337870445	2.5	B	violation	0	0.7305502519593574
391.4852927240426	2.5	A	violation	1	0.7636743459734134
394.4852509740158	2.5	B	nonviolation	1	1.0247113730292767
397.4852082450525	2.5	A	violation	1	0.5707521659787744
400.4851778910379	2.5	A	violation	1	0.6767824119888246
403.485137855052	2.5	B	violation	0	0.8888240789528936
406.48508673900506	2.5	B	violation	0	0.6788759730407037
409.48504540603614	2.5	B	violation	0	0.5239129859837703
412.48501585604384	2.5	B	violation	1	0.8899454419733956
415.4849693150027	2.5	A	nonviolation	1	0.7609712220146321
418.4849524220335	2.5	B	violation	0	0.7659552069962956
421.4849123890162	2.5	A	nonviolation	1	0.6320752819883637
424.48484663903946	2.5	A	nonviolation	1	0.6780674100155011
427.4848115380155	2.5	B	nonviolation	1	0.7791538070305251
430.4847621070221	2.5	B	violation	0	0.8742021539947018
433.4847311240155	2.5	A	violation	1	0.5612331160227768
436.4846863190178	2.5	B	nonviolation	1	0.8042776280199178
439.48465516604483	2.5	A	violation	1	0.8403169809607789
442.4846054430236	2.5	B	nonviolation	1	0.9943591679912059
445.48456821701257	2.5	A	nonviolation	1	0.7013973990106024
448.4845227610203	2.5	B	nonviolation	0	0.8644484269898385
451.48448752000695	2.5	A	violation	1	0.8204869260080159
454.48444847902283	2.5	A	violation	1	0.6845211730105802
457.48440032103105	2.5	B	violation	0	0.7925651320256293
460.48435339803115	2.5	B	nonviolation	1	0.7235416739713401
463.4843128240318	2.5	B	nonviolation	1	0.6506593429949135
466.4842776280129	2.5	A	violation	1	0.6656883570249192
469.484237886034	2.5	A	nonviolation	1	0.5857337829656899
472.4842048080173	2.5	B	violation	1	0.8587737770285457
475.4841629450093	2.5	B	nonviolation	1	0.8318014690303244
478.4841167110135	2.5	B	nonviolation	0	0.6738555430201814
481.4840762220556	2.5	B	violation	0	0.7609190429793671
484.48403717402834	2.5	A	nonviolation	1	0.5749337570159696
487.48399706301285	2.5	A	nonviolation	1	0.7529789610416628
490.4839611130301	2.5	B	violation	1	0.8558933530002832
493.4839134840295	2.5	A	nonviolation	1	0.7780691270017996
496.4838729720214	2.5	A	nonviolation	1	0.6010943820001557
499.483832285041	2.5	A	violation	1	1.0691409430000929
502.48379180801567	2.5	A	violation	1	0.6301793470047414
505.48378175805567	2.5	A	nonviolation	1	0.6511932019493543
508.483712647052	2.5	A	violation	1	0.8122873359825462
511.4836761930492	2.5	B	violation	1	0.810297230957076
514.4836269190419	2.5	B	nonviolation	0	0.7793726910022087
517.4835888710222	2.5	B	nonviolation	0	0.7533925320021808
520.4835547450348	2.5	B	violation	1	0.995419660001062
523.4835101060453	2.5	B	violation	0	0.6954737099586055
526.4834731150186	2.5	B	nonviolation	0	0.6905071410001256
529.4834341880049	2.5	A	violation	1	0.7815418789978139
532.4833948660524	2.5	A	nonviolation	1	0.8115190899698064
535.4833449090365	2.5	B	nonviolation	1	0.979635405994486
538.4833043040126	2.5	B	violation	0	0.9276705470401794
541.4832628530568	2.5	A	nonviolation	1	0.5607110199634917
544.4832241250551	2.5	B	violation	1	0.7507399199530482
547.4831903030281	2.5	A	violation	1	0.4977943070116453
550.4831493880483	2.5	A	nonviolation	1	0.5618318829801865
553.483108490007	2.5	B	violation	1	0.6578693360206671
556.483071211027	2.5	B	nonviolation	0	0.8789235610165633
559.4830300830072	2.5	A	violation	1	0.7199496910325252
562.4829868850065	2.5	B	violation	1	0.8029955940437503
565.4829496110324	2.5	A	nonviolation	1	0.6900356339756399
568.4829075000016	2.5	A	violation	1	0.8720717830001377
571.482864249032	2.5	B	nonviolation	0	0.7190443609724753
574.4828200080083	2.5	A	violation	1	0.7190881170099601
577.4827870480367	2.5	B	nonviolation	1	0.760199795011431
580.4827426540432	2.5	B	violation	0	0.5952433840138838
583.48269239004	2.5	A	violation	1	0.6002908939844929
586.4826544430108	2.5	A	nonviolation	1	0.9503284670063294
