onset	duration	trial_type	condition	repetition	pairmate	pairID	category	subcategory	response_accuracy	response_time
13.509039130993187	1	postlearning	violation	7	B	28	scene	indoor	1	0.6453316260012798
16.508998762990817	1	postlearning	violation	7	B	40	scene	outdoor	1	0.4963189699919894
19.508960723993372	1	postlearning	violation	7	B	18	scene	outdoor	1	0.5394078600220382
22.508921544009358	1	postlearning	violation	7	B	46	scene	indoor	1	0.4854551909957081
25.50888249301352	1	postlearning	violation	7	B	32	scene	outdoor	1	0.5464893439784646
28.50884469301673	1	postlearning	violation	7	B	6	scene	outdoor	1	0.5095300470129587
31.508802219002966	1	postlearning	nonviolation	7	B	57	scene	outdoor	1	0.4465104329865426
34.508777095994446	1	postlearning	violation	7	B	30	scene	outdoor	1	0.6166019430384039
37.50873147603125	1	postlearning	nonviolation	7	B	53	scene	indoor	1	0.4966528549557552
40.50869435601635	1	postlearning	nonviolation	7	B	83	scene	outdoor	1	0.5376852870103903
43.508654845994904	1	postlearning	violation	7	B	33	scene	indoor	1	0.4407174719963223
46.50860942999134	1	postlearning	violation	7	B	22	scene	outdoor	1	0.3806934450403787
49.50857692101272	1	postlearning	violation	7	B	39	scene	indoor	1	0.4638133560074493
52.50852845399641	1	postlearning	violation	7	B	11	scene	outdoor	1	0.4398461679811589
55.50849075202132	1	postlearning	violation	7	B	43	scene	outdoor	1	0.5738922629971057
58.5084561620024	1	postlearning	nonviolation	7	B	75	scene	indoor	1	0.5629257980035618
61.508413731004104	1	postlearning	nonviolation	7	B	62	scene	indoor	1	0.4399607420200482
64.50837150699225	1	postlearning	nonviolation	7	B	49	scene	outdoor	1	0.6990061030373909
67.50833539402811	1	postlearning	violation	7	B	15	scene	outdoor	1	0.5760452559916303
70.50829326303209	1	postlearning	nonviolation	7	B	56	scene	indoor	1	0.4580843279836699
73.50825744098985	1	postlearning	violation	7	B	23	scene	indoor	1	0.5441247189883143
76.5082206610241	1	postlearning	violation	7	B	26	scene	indoor	1	0.4760967869660817
79.50817767297849	1	postlearning	nonviolation	7	B	63	scene	outdoor	1	0.6162040500203148
82.50813438399928	1	postlearning	nonviolation	7	B	70	scene	outdoor	1	0.4822518579894677
85.50809623103123	1	postlearning	violation	7	B	20	scene	indoor	1	0.49929153296398
88.50805666198721	1	postlearning	violation	7	B	1	scene	outdoor	1	0.4753305779886432
91.50801605201559	1	postlearning	nonviolation	7	B	73	scene	outdoor	1	0.4103643900016323
94.50797440297902	1	postlearning	violation	7	B	17	scene	indoor	1	0.5234039170318283
97.50793643499493	1	postlearning	nonviolation	7	B	61	scene	indoor	1	0.3984555010101758
100.50789402099328	1	postlearning	nonviolation	7	B	68	scene	indoor	1	0.4624839050229639
103.50785749201894	1	postlearning	violation	7	B	4	scene	indoor	1	0.4235263330047019
106.50781954900593	1	postlearning	nonviolation	7	B	84	scene	indoor	1	0.4605683839763514
109.50778484903276	1	postlearning	nonviolation	7	B	59	scene	indoor	1	0.4665847589494661
112.50774652301334	1	postlearning	violation	7	B	29	scene	outdoor	1	0.5174339389777742
115.50770616199587	1	postlearning	nonviolation	7	B	74	scene	outdoor	0	0.36967859201831743
118.50767045898829	1	postlearning	violation	7	B	10	scene	outdoor	1	0.5777140430291183
121.50762297498295	1	postlearning	nonviolation	7	B	90	scene	outdoor	1	0.3957679480081424
124.50758704001781	1	postlearning	nonviolation	7	B	93	scene	indoor	1	0.5098059760057367
127.50753599201563	1	postlearning	nonviolation	7	B	79	scene	indoor	1	0.5418545780121349
130.50749709701628	1	postlearning	violation	7	B	9	scene	indoor	1	0.5138922529877163
133.5074586480041	1	postlearning	nonviolation	7	B	88	scene	indoor	1	0.612932396994438
136.5074176369817	1	postlearning	violation	7	B	34	scene	indoor	1	0.5079682079958731
139.50738092802928	1	postlearning	nonviolation	7	B	86	scene	outdoor	1	0.5640118040028028
142.50733851100085	1	postlearning	nonviolation	7	B	71	scene	indoor	1	0.473050503002014
145.5072982200072	1	postlearning	nonviolation	7	B	72	scene	outdoor	1	0.5750925780157559
148.50726693600882	1	postlearning	nonviolation	7	B	52	scene	outdoor	1	0.6881226719706319
151.50721943500685	1	postlearning	violation	7	B	37	scene	outdoor	0	0.517189814010635
154.50717947201338	1	postlearning	violation	7	B	31	scene	indoor	1	0.4872180299717002
157.50714769400656	1	postlearning	violation	7	B	8	scene	indoor	1	0.5602416190085933
160.50710053101648	1	postlearning	violation	7	B	21	scene	indoor	1	0.6172900510136969
163.5070583979832	1	postlearning	violation	7	B	16	scene	outdoor	1	0.6793201950495131
166.5070264120004	1	postlearning	nonviolation	7	B	92	scene	outdoor	1	0.5353645770228468
169.50698666501557	1	postlearning	violation	7	B	3	scene	outdoor	1	0.4374026769655757
172.50694063003175	1	postlearning	nonviolation	7	B	95	scene	outdoor	1	0.4863302710000426
175.5068979819771	1	postlearning	violation	7	B	25	scene	outdoor	1	0.5284992270171642
178.50685978902038	1	postlearning	nonviolation	7	B	50	scene	outdoor	1	0.4135365489637479
181.5068288510083	1	postlearning	nonviolation	7	B	67	scene	outdoor	1	0.3765616129967384
184.50678016699382	1	postlearning	violation	7	B	41	scene	indoor	1	0.5546159719815478
187.50674043199982	1	postlearning	violation	7	B	19	scene	outdoor	1	0.4356489580241032
190.4900227619801	1	postlearning	nonviolation	7	B	76	scene	outdoor	1	0.35335307399509475
193.4899843329913	1	postlearning	violation	7	B	14	scene	indoor	1	0.5244153279927559
196.489946014015	1	postlearning	violation	7	B	47	scene	outdoor	1	0.423447003995534
199.50658061302968	1	postlearning	violation	7	B	42	scene	indoor	1	0.4388206269941293
202.48986134497682	1	postlearning	violation	7	B	44	scene	outdoor	1	0.5295027450192721
205.50649871700443	1	postlearning	violation	7	B	5	scene	indoor	1	0.4588960860273801
208.5064597519813	1	postlearning	violation	7	B	24	scene	outdoor	1	0.4099321940448135
211.48975209501805	1	postlearning	nonviolation	7	B	54	scene	indoor	1	0.5076492379885167
214.4897074960172	1	postlearning	violation	7	B	45	scene	indoor	1	0.5176955100032501
217.4896901919856	1	postlearning	nonviolation	7	B	96	scene	indoor	1	0.4677073730272241
220.48962406400827	1	postlearning	nonviolation	7	B	89	scene	outdoor	1	0.455771305016242
223.4895821730024	1	postlearning	violation	7	B	35	scene	outdoor	1	0.4777351060183719
226.4895435990184	1	postlearning	violation	7	B	38	scene	indoor	1	0.4798485370120034
229.4895146770286	1	postlearning	nonviolation	7	B	81	scene	indoor	1	0.4908813060028479
232.4894759900053	1	postlearning	nonviolation	7	B	94	scene	indoor	1	0.4409252119949088
235.48943174100717	1	postlearning	violation	7	B	7	scene	indoor	1	0.4979693400091492
238.48939292400607	1	postlearning	violation	7	B	13	scene	indoor	1	0.4280074500129558
241.4893527980312	1	postlearning	nonviolation	7	B	91	scene	indoor	1	0.4270429889438674
244.48931186302798	1	postlearning	violation	7	B	48	scene	outdoor	1	0.5039087369805202
247.48927309998544	1	postlearning	nonviolation	7	B	77	scene	indoor	1	0.4941324850078672
250.4892382529797	1	postlearning	nonviolation	7	B	51	scene	indoor	1	0.5101694510085508
253.4891915530316	1	postlearning	violation	7	B	12	scene	indoor	1	0.5872165559558198
256.489167059015	1	postlearning	violation	7	B	27	scene	indoor	1	0.484237395983655
259.48911333899014	1	postlearning	nonviolation	7	B	85	scene	outdoor	1	0.6292884080321528
262.48906899802387	1	postlearning	nonviolation	7	B	87	scene	indoor	1	0.3913359149591997
265.4890340199927	1	postlearning	nonviolation	7	B	69	scene	indoor	1	0.4103660249966197
268.48899722500937	1	postlearning	nonviolation	7	B	58	scene	outdoor	1	0.4584054629667662
271.48896044498537	1	postlearning	violation	7	B	36	scene	outdoor	1	0.485366111039184
274.4889552469831	1	postlearning	violation	7	B	2	scene	outdoor	1	0.504453250032384
277.4888710959931	1	postlearning	nonviolation	7	B	55	scene	outdoor	1	0.4624715010286309
280.4888388820109	1	postlearning	nonviolation	7	B	78	scene	indoor	1	0.4935590049717575
283.488799705985	1	postlearning	nonviolation	7	B	80	scene	outdoor	1	0.6186320850392804
286.48876104602823	1	postlearning	nonviolation	7	B	65	scene	indoor	1	0.55664451996563
289.48870873101987	1	postlearning	nonviolation	7	B	66	scene	outdoor	1	0.3637011469691061
292.4886705300305	1	postlearning	nonviolation	7	B	82	scene	outdoor	1	0.5157378899748437
295.4886326470296	1	postlearning	nonviolation	7	B	64	scene	outdoor	1	0.5827693699975498
298.4885972579941	1	postlearning	nonviolation	7	B	60	scene	indoor	1	0.4628094619838521
