onset	duration	trial_type	condition	response_accuracy	response_time
13.499658269982321	2.5	A	nonviolation	1	0.9033562710392288
16.499604579003062	2.5	B	violation	0	1.03041398600908
19.49957614397863	2.5	A	violation	1	0.745245521015022
22.49953509302577	2.5	A	violation	1	0.6784793469705619
25.499495872005358	2.5	B	violation	1	0.8394353819894604
28.499454674019947	2.5	A	violation	1	0.7415594079648145
31.499419911997396	2.5	A	nonviolation	1	0.6105966489994898
34.49938675103476	2.5	A	nonviolation	1	0.6006268559722231
37.499344045994796	2.5	B	violation	0	0.776670410996303
40.499305036035366	2.5	A	violation	1	0.7657119269715622
43.499258842028205	2.5	A	nonviolation	1	0.7417784739518538
46.49921708699549	2.5	A	nonviolation	1	0.914800442988053
49.49917914700928	2.5	A	nonviolation	1	0.7478449359769002
52.49914762802654	2.5	B	violation	0	0.7998685810016468
55.49910109600751	2.5	B	nonviolation	1	0.9079176280065441
58.49907605600311	2.5	B	violation	1	0.8169425270170905
61.49902237101924	2.5	B	nonviolation	0	0.9069985839887522
64.4989828169928	2.5	A	violation	1	1.2130414129933342
67.49894326203503	2.5	B	nonviolation	1	0.7800123879569583
70.49891237000702	2.5	B	violation	0	0.790110910020303
73.49887012399267	2.5	A	nonviolation	1	0.7771512950421311
76.49883692798903	2.5	B	nonviolation	1	0.8641826760140248
79.49879096500808	2.5	A	violation	1	0.6852412860025652
82.49875348102069	2.5	B	violation	1	0.7132714340114035
85.49873752001442	2.5	B	violation	1	0.9432788040139712
88.49867078301031	2.5	B	violation	1	0.7262837029993534
91.49864087003515	2.5	B	nonviolation	0	0.6913801009650342
94.49860227102181	2.5	B	violation	1	0.7204014990129508
97.49856477900177	2.5	B	nonviolation	0	0.6214583690161817
100.49851727997884	2.5	A	violation	1	0.6025183770107105
103.49847715900978	2.5	B	violation	0	0.8385509310173802
106.49844002799364	2.5	A	nonviolation	1	0.6395884120138362
109.4984046519967	2.5	A	violation	1	0.7286227000295185
112.4983528549783	2.5	B	nonviolation	1	1.1436708320397884
115.49832728999901	2.5	A	nonviolation	1	0.7407007900183089
118.49827545799779	2.5	A	violation	1	0.6147501320228912
121.49823268299222	2.5	A	nonviolation	1	0.5437953610089608
124.4981969880173	2.5	B	nonviolation	1	1.0838357820175588
127.4981619680184	2.5	B	nonviolation	0	0.7638822519802488
130.49812457402004	2.5	A	nonviolation	1	0.7368313939659856
133.49808901699726	2.5	A	violation	1	0.6619348840322345
136.49803483102005	2.5	B	violation	0	0.6539934430038556
139.4979977250332	2.5	B	nonviolation	0	0.5620344839990139
142.4979733040091	2.5	A	violation	1	0.76505518599879
145.4979304909939	2.5	A	nonviolation	1	1.1721266760141589
148.49787953100167	2.5	A	violation	1	0.6071550130145624
151.497839602991	2.5	B	nonviolation	1	0.8501904230215587
154.49779828003375	2.5	B	nonviolation	1	0.651236085977871
157.49775971303458	2.5	B	violation	1	0.4312780879554339
160.49771858000898	2.5	A	violation	1	0.6111914790235461
163.49767932598482	2.5	A	violation	1	0.7363739730208181
166.49763793702004	2.5	A	nonviolation	1	0.6173952019889839
169.49760530999632	2.5	B	violation	0	0.7714307950227521
172.49756420700578	2.5	B	nonviolation	0	0.6824713899986818
175.4975178930326	2.5	A	violation	1	0.620489805995021
178.4974784370279	2.5	B	nonviolation	1	0.6635525249876082
181.49743564700475	2.5	B	nonviolation	1	0.6005974289728329
184.49740348599155	2.5	B	violation	0	0.467630374012515
187.4973621020326	2.5	A	violation	1	0.5816717859706841
190.497323182004	2.5	B	nonviolation	1	0.5487129290122539
193.49728434399003	2.5	B	nonviolation	1	0.4507497490267269
196.4972354620113	2.5	B	nonviolation	1	0.5697955900104716
199.4972039600252	2.5	B	nonviolation	0	0.6148337119957432
202.49715668399585	2.5	A	nonviolation	0	0.5138842870364897
205.49711462802952	2.5	A	violation	1	0.938925850961823
208.49708183598702	2.5	B	violation	0	0.9739702889928594
211.49704217602263	2.5	A	nonviolation	1	0.9398748459643684
214.49700222600947	2.5	A	violation	1	0.702033974986989
217.4969559200108	2.5	A	nonviolation	1	0.6820922329789028
220.4969165180228	2.5	B	violation	0	0.6491229779785499
223.49688320700082	2.5	A	nonviolation	1	0.6791532370261848
226.4968359330087	2.5	A	violation	1	0.7082056130166166
229.4967976949993	2.5	B	violation	1	0.8752491730265319
232.49675607000245	2.5	B	violation	1	0.7252880210289732
235.49671106698224	2.5	A	violation	1	0.7553340270533226
238.4966754729976	2.5	B	nonviolation	0	0.8893647430231795
241.49663221900119	2.5	B	violation	1	0.6924071300309151
244.49660302099076	2.5	A	violation	1	0.7034450310165994
247.49655476701446	2.5	A	nonviolation	1	0.736404147988651
250.4965202130261	2.5	B	violation	1	0.9895210879622028
253.49648653599436	2.5	A	violation	1	0.7695613300311379
256.49642834003316	2.5	B	nonviolation	0	0.8606178019545041
259.49639547499834	2.5	A	nonviolation	1	0.8076530810212716
262.4963526300271	2.5	A	nonviolation	1	0.5666840359917842
265.49631234898703	2.5	B	violation	0	1.0777355449972674
268.4962736670277	2.5	B	violation	0	0.9417712029535324
271.4962287560338	2.5	A	nonviolation	1	0.6278228799928911
274.49619079602417	2.5	A	violation	1	0.6838558460003696
277.496151808009	2.5	B	nonviolation	1	0.8398228770238347
280.49611337203527	2.5	B	nonviolation	0	0.672929516993463
283.49607014301	2.5	A	nonviolation	1	0.5399820649763569
286.4960370170302	2.5	A	nonviolation	1	0.7680112429661676
289.4959966330207	2.5	A	violation	1	0.7099811899824999
292.49595569301164	2.5	B	violation	1	0.7210917129996233
295.4959100710112	2.5	A	nonviolation	1	0.5851379769737832
298.4958746850025	2.5	B	nonviolation	0	0.8911758969770744
301.49582783202635	2.5	A	violation	1	0.6592169909854421
304.49579407199053	2.5	B	violation	0	0.795258174999617
307.4957484700135	2.5	B	nonviolation	0	0.7203041049651802
310.4957094620331	2.5	B	nonviolation	1	0.5393385029747151
313.49567429401213	2.5	B	nonviolation	0	0.8503771200194024
316.4956337850308	2.5	A	nonviolation	1	0.581288555986248
319.4955861879862	2.5	A	violation	1	0.6303807730437256
322.49554657097906	2.5	A	nonviolation	1	0.727506612020079
325.4955059569911	2.5	A	violation	1	0.7635510630207136
328.49546955002006	2.5	B	violation	1	0.7275070020114072
331.49542568001203	2.5	B	violation	0	0.6225812389748171
334.49538933101576	2.5	B	violation	1	0.6986616199719721
337.49534907803167	2.5	A	nonviolation	1	0.6907062319805846
340.4953110549832	2.5	A	nonviolation	1	0.5257418500259519
343.4952636510134	2.5	A	violation	1	0.7287924439879134
346.4952178410022	2.5	B	nonviolation	0	0.7398491710191593
349.49518905603327	2.5	B	nonviolation	1	0.6988672529696487
352.49514396500314	2.5	B	violation	0	0.8719142759800889
355.49509603698965	2.5	B	nonviolation	1	0.7749579310184345
358.49506677401945	2.5	B	nonviolation	0	0.73491047200514
361.4950257230085	2.5	B	nonviolation	0	0.8040296980179846
364.49498788802885	2.5	A	nonviolation	1	0.6920708940015174
367.4949396899901	2.5	A	nonviolation	1	0.8981165640288964
370.49489753902884	2.5	B	violation	0	0.6651569799869321
373.49485302699026	2.5	A	nonviolation	1	0.946206093998626
376.49482542998163	2.5	B	violation	0	0.6442331860307604
379.49478263797937	2.5	B	violation	0	0.7152822670177557
382.4947421590332	2.5	A	violation	1	0.7883169479900971
385.4946913989843	2.5	A	violation	1	0.916370688006282
388.49466344399843	2.5	B	violation	1	0.9033991119940764
391.4946155379876	2.5	A	violation	1	0.6834667480434291
394.49457189103117	2.5	B	nonviolation	1	0.7384912819834426
397.4945303290151	2.5	A	violation	1	0.6775365740177222
400.4944953889935	2.5	B	violation	1	0.6825641760369763
403.4944516170072	2.5	A	violation	1	0.5346306749852374
406.4944102130248	2.5	B	nonviolation	1	0.866655518009793
409.4943663430168	2.5	A	violation	1	0.7427010819665156
412.49433939502336	2.5	B	violation	0	0.7777243269956671
415.49428914400045	2.5	A	nonviolation	1	0.8517773969797418
418.4942476020078	2.5	A	violation	1	0.8468146939994767
421.4942813660018	2.5	B	nonviolation	1	0.6567988750175573
424.49417104502214	2.5	A	nonviolation	1	0.6438933089957573
427.49413578602247	2.5	A	violation	1	0.5749300479656085
430.49408313899767	2.5	B	nonviolation	0	0.7799885860295035
433.4940756300348	2.5	A	nonviolation	1	0.7059866539784707
436.4940360109904	2.5	A	nonviolation	1	0.6540276220184751
439.49397167400457	2.5	A	nonviolation	1	0.6040904810070059
442.4772542830324	2.5	B	violation	1	0.69281116098864
445.47720647201635	2.5	A	violation	1	0.6808570519788191
448.4938466750318	2.5	A	violation	1	0.7222297849948518
451.49380630702944	2.5	A	violation	1	0.5582611080026254
454.49377180001466	2.5	B	violation	0	0.7242307689739391
457.4770468400093	2.5	A	nonviolation	1	0.7419485750142485
460.4770182250068	2.5	A	violation	1	0.7279370169853792
463.4769908590242	2.5	A	violation	1	0.7399925189674832
466.47693675302435	2.5	B	violation	0	0.773134188959375
469.4768857029849	2.5	A	nonviolation	1	0.8231817170162685
472.4768499960192	2.5	A	nonviolation	1	0.6732241099816747
475.4768101630034	2.5	B	nonviolation	1	0.7612952120252885
478.47677078703424	2.5	A	nonviolation	1	0.7002480349619873
481.47672999702627	2.5	B	violation	0	0.6833369809901342
484.4766835729824	2.5	B	nonviolation	1	1.248389517015312
487.4766517300159	2.5	B	violation	0	0.8584172819973901
490.47660938702757	2.5	B	nonviolation	0	0.7234664879506454
493.4765620430117	2.5	B	violation	1	0.7414305320126005
496.4765368070221	2.5	B	nonviolation	1	0.4225383339799009
499.47649247798836	2.5	B	nonviolation	0	0.7384973299922422
502.4764499060111	2.5	A	nonviolation	1	0.4766298690228723
505.47640922397835	2.5	A	nonviolation	1	0.5605520110111684
508.47637723601656	2.5	B	nonviolation	0	0.531698772974778
511.47633159602987	2.5	B	violation	0	0.703745284001343
514.4762847090024	2.5	B	violation	0	0.6957900500274263
517.4762520589866	2.5	A	violation	1	0.6688264120020904
520.4762202739948	2.5	B	violation	1	0.6688587259850465
523.4761608550325	2.5	A	violation	1	0.5899217369733378
526.4761267920259	2.5	B	nonviolation	0	0.7479505949886516
529.4760739920312	2.5	B	nonviolation	1	0.7690114089637063
532.476059298031	2.5	A	nonviolation	1	0.6709537470014766
535.4760000369862	2.5	B	violation	1	0.5540799710433929
538.4759749610093	2.5	B	nonviolation	0	0.7061293029692024
541.4759343310143	2.5	B	violation	0	0.7251438010134734
544.4758819150156	2.5	B	nonviolation	1	0.9682000660104676
547.4758452050155	2.5	A	violation	0	0.3002349080052227
550.4758078969899	2.5	A	nonviolation	1	0.5352735500200652
553.4757659559837	2.5	A	nonviolation	1	0.6013195760315284
556.4757313770242	2.5	B	nonviolation	1	0.9243468749918976
559.4756880659844	2.5	A	violation	1	0.7823963779956102
562.4756539420341	2.5	A	violation	1	0.6414278529700823
565.475599472993	2.5	B	violation	1	0.8084955679951236
568.4755685959826	2.5	A	nonviolation	1	0.8445143400458619
571.475522327004	2.5	A	violation	1	0.9725648270105012
574.475492675032	2.5	B	violation	1	0.6855957599473186
577.4754314239835	2.5	A	nonviolation	1	0.5776548590511084
580.4754033909994	2.5	A	violation	1	0.6406846420140937
583.4753486189875	2.5	B	nonviolation	1	0.5607378490385599
586.4753190290066	2.5	A	nonviolation	1	0.6197632310213521
