onset	duration	trial_type	subcategory	response_accuracy	response_time
13.50078523598495	0.5	object	natural	1	0.608790170022985
15.000766502984334	0.5	object	manmade	1	0.6938846760021988
16.500743025011616	0.5	object	manmade	1	0.5149013979826123
18.000725088990293	0.5	object	manmade	1	0.8259311889996752
19.50070505499025	0.5	object	natural	1	0.594883835001383
21.000685782986693	0.5	object	natural	1	0.6769662770093419
22.50066489900928	0.5	object	manmade	1	0.49598408298334107
24.000644538988126	0.5	object	natural	1	0.5090085900155827
25.500622311985353	0.5	object	natural	1	0.5180388250155374
27.000604387983913	0.5	object	manmade	1	0.5235308660194278
43.50038275599945	0.5	scene	outdoor	1	0.4927681580011267
45.000365515996236	0.5	scene	outdoor	1	0.4862887600029353
46.50034032401163	0.5	scene	outdoor	1	0.5342211659881286
48.000322373001836	0.5	scene	indoor	1	0.4143287089827936
49.50030225099181	0.5	scene	indoor	1	0.5023646780173294
51.00028017698787	0.5	scene	indoor	1	0.5643856710230466
52.5002619419829	0.5	scene	indoor	1	0.6323904950113501
54.00024012598442	0.5	scene	indoor	1	0.6934111150039826
55.500221497990424	0.5	scene	outdoor	1	0.5494404720084276
57.000201566988835	0.5	scene	outdoor	1	0.43345844402210787
73.49998720700387	0.5	object	natural	1	0.6666765809932258
74.9999601879972	0.5	object	natural	1	0.45969414099818096
76.4999385830015	0.5	object	manmade	1	0.5696900459879544
77.99991842900636	0.5	object	manmade	1	0.471736098988913
79.49989593599457	0.5	object	manmade	1	0.49868471501395106
80.99987795201014	0.5	object	natural	1	0.4617471219971776
82.49985800299328	0.5	object	manmade	1	0.5248067110078409
83.99983760298346	0.5	object	manmade	1	0.5757084320066497
85.4998237020045	0.5	object	natural	1	0.4858270729891956
86.9997966499941	0.5	object	natural	1	0.489778123999713
103.49957415298559	0.5	face	female	1	0.5250811930163763
105.0041118490044	0.5	face	female	1	0.45854469898040406
106.49953363399254	0.5	face	female	1	0.40013461001217365
107.9995137520018	0.5	face	female	1	0.4481452670006547
109.49949344000197	0.5	face	female	1	0.4481702809862327
110.9994731709885	0.5	face	male	1	0.4211889840080403
112.49945394400856	0.5	face	male	1	0.3212034699972719
113.99943246299517	0.5	face	male	1	0.3352343240112532
115.49941180998576	0.5	face	male	1	0.41818679601419717
116.99938985100016	0.5	face	male	1	0.43426878200261854
133.49917153498973	0.5	object	natural	1	0.6964901650208049
135.0019699370023	0.5	object	natural	1	0.6467017660033889
136.49912885698723	0.5	object	natural	1	0.5615375940105878
137.99910866800928	0.5	object	manmade	1	0.5805634229909629
139.49908657401102	0.5	object	manmade	1	0.6105754459858872
140.99906602600822	0.5	object	manmade	1	0.5335692349763121
142.49904792700545	0.5	object	natural	1	0.46358897499158047
143.99902777999523	0.5	object	manmade	1	0.5806127279938664
145.49900750498637	0.5	object	natural	1	0.5665929740061983
146.9989851900027	0.5	object	manmade	1	0.6206772610021289
163.49876382798539	0.5	scene	outdoor	1	0.8869818840175867
165.00006346398732	0.5	scene	indoor	1	0.5666117689979728
166.49872341399896	0.5	scene	indoor	0	0.5849442679900676
167.99870622699382	0.5	scene	indoor	1	0.6339599319908302
169.498683015001	0.5	scene	outdoor	1	0.46798041998408735
170.99866401898907	0.5	scene	indoor	1	0.5809779330156744
172.49864029799937	0.5	scene	outdoor	1	0.5409476050117519
173.9986222239968	0.5	scene	indoor	1	0.5140466910088435
175.49860197500675	0.5	scene	outdoor	1	0.5420780509884935
176.99858142700396	0.5	scene	outdoor	0	0.5810372259875294
193.498358257988	0.5	face	male	1	0.6873084290127736
194.99833805600065	0.5	face	male	1	0.46643077000044286
196.49897493899334	0.5	face	female	1	0.47069762501632795
197.99829702998977	0.5	face	male	1	0.6553801459958777
199.49827683798503	0.5	face	female	1	0.5044125870044809
200.99826008698437	0.5	face	female	1	0.462373637012206
202.4982363290037	0.5	face	female	1	0.77244384700316
203.99821469100425	0.5	face	male	1	0.5684585660055745
205.49819581198972	0.5	face	male	1	0.6114765760139562
206.99817576099304	0.5	face	female	1	0.6435052180022467
223.4979516020103	0.5	face	female	1	0.99272089698934
224.99793132199557	0.5	face	female	1	0.484757661994081
226.49790881900117	0.5	face	female	1	0.534766075987136
227.99789070698898	0.5	face	female	1	0.46978832202148624
229.4978705930116	0.5	face	male	0	0.4608138329931535
230.99785044099553	0.5	face	male	1	0.5518207360000815
232.49783005399513	0.5	face	male	1	0.5808545740146656
233.99780812498648	0.5	face	female	1	0.5348677640140522
235.49778948700987	0.5	face	male	1	0.6258944919973146
236.99776912500965	0.5	face	male	1	0.6739115289819892
253.49754650201066	0.5	scene	outdoor	1	0.5771338869817555
254.99752596698818	0.5	scene	indoor	1	0.49915080101345666
256.49750446900725	0.5	scene	outdoor	1	0.5102022509963717
257.99748324698885	0.5	scene	outdoor	1	0.7321924130083062
259.4974677489954	0.5	scene	indoor	1	0.6671869540004991
260.9974447679997	0.5	scene	outdoor	1	0.5082363460096531
262.4974244610057	0.5	scene	indoor	1	0.6102570719958749
263.9974040859961	0.5	scene	indoor	1	0.653299141995376
265.4973839239974	0.5	scene	indoor	1	0.6282674270041753
266.9973634009948	0.5	scene	outdoor	1	0.6763185810123105
283.4971398760099	0.5	scene	outdoor	1	0.5215387029747944
284.99712072400143	0.5	scene	outdoor	1	0.6535600450006314
286.4971006049891	0.5	scene	indoor	1	0.4815789780113846
287.99707758100703	0.5	scene	indoor	1	0.5026086260040756
289.49705775198527	0.5	scene	outdoor	1	0.49911092102411203
290.99704160299734	0.5	scene	outdoor	1	0.5166390869999304
292.49701900500804	0.5	scene	indoor	1	0.3706594980030786
293.99699842499103	0.5	scene	outdoor	1	0.7096764529997017
295.4969782900007	0.5	scene	indoor	1	0.4447119740070775
296.996958601987	0.5	scene	indoor	1	0.4697312909993343
313.4967350070074	0.5	object	natural	1	0.6049526239803527
314.99671277200105	0.5	object	manmade	1	0.8599764429964125
316.4966927479836	0.5	object	natural	1	0.502000754000619
317.996674258	0.5	object	manmade	1	0.6449532090045977
319.4966554850107	0.5	object	natural	1	0.5389986819936894
320.99663361598505	0.5	object	manmade	1	0.5350489530246705
322.49661304301117	0.5	object	natural	1	0.646077546000015
323.9965932549967	0.5	object	manmade	1	0.6050988379865885
325.49657523600035	0.5	object	natural	1	0.42008360600448214
326.9965502900013	0.5	object	manmade	1	0.5420771229837555
343.49632965700584	0.5	face	male	1	0.5803591650037561
344.99630964998505	0.5	face	female	1	0.5413769590086304
346.49629149300745	0.5	face	male	1	0.6093991730012931
347.9962690609973	0.5	face	female	1	0.42042735501308925
349.49624633500935	0.5	face	male	1	0.5004412369744387
350.9962285689835	0.5	face	female	1	0.5314650090003852
352.49620855998364	0.5	face	female	1	0.5394388929998968
353.99618648400065	0.5	face	female	1	0.6965014179877471
355.4961684040027	0.5	face	male	1	0.49650153098627925
356.99614573898725	0.5	face	male	1	0.6325489790178835
373.4959249960084	0.5	face	male	1	0.7787836479838006
374.995904498006	0.5	face	female	1	0.47271061298670247
376.49588515100186	0.5	face	male	1	0.5968850659846794
377.99587120700744	0.5	face	female	1	0.5808220629987773
379.4958438469912	0.5	face	male	1	0.6078527530189604
380.9958237579849	0.5	face	male	0	0.9288736850139685
382.4958029970003	0.5	face	male	1	0.5508914570091292
383.99578329900396	0.5	face	female	1	0.44790964300045744
385.4957634930033	0.5	face	female	1	0.41992838398437016
386.9957410299976	0.5	face	female	1	0.45395644698874094
403.47885506998864	0.5	scene	outdoor	1	0.4888466290140059
404.97883152400027	0.5	scene	indoor	1	0.5458623000013176
406.4788459489937	0.5	scene	indoor	1	0.6167823150171898
407.9787918899965	0.5	scene	indoor	1	0.5068298669939395
409.49543787300354	0.5	scene	outdoor	1	0.4462596210069023
410.99541983398376	0.5	scene	outdoor	1	0.44628338000620715
412.4953979580023	0.5	scene	indoor	1	0.5003066399949603
413.97870994900586	0.5	scene	outdoor	1	0.5979912350012455
415.495358863991	0.5	scene	outdoor	1	0.577341277996311
416.99533886500285	0.5	scene	indoor	1	0.793356798007153
433.47844651699415	0.5	object	manmade	1	0.6393073399958666
434.97842813600437	0.5	object	manmade	1	0.5322823959868401
436.4784069790039	0.5	object	natural	1	0.4012757820019033
437.97838738700375	0.5	object	natural	1	0.5572371860034764
439.4783690269978	0.5	object	natural	1	0.4588194369862322
440.97834910301026	0.5	object	manmade	1	0.5974099939921871
442.4783284699952	0.5	object	natural	1	0.5293830329901539
443.97830856899964	0.5	object	manmade	1	0.5713892529893201
445.4782883239968	0.5	object	natural	1	0.5184102540079039
446.97826812200947	0.5	object	manmade	1	0.5124509159941226
