onset	duration	trial_type	condition	response_accuracy	response_time
13.498694611014798	2.5	A	violation	1	0.8760093429591507
16.498654228053056	2.5	A	violation	1	0.8590499599231407
19.515289713046513	2.5	A	violation	1	0.7594175549456851
22.498572528013028	2.5	A	nonviolation	1	0.6841364420251921
25.49854285095353	2.5	A	nonviolation	1	0.9820846060756594
28.498499479028396	2.5	A	nonviolation	1	0.7062066229991615
31.49846345896367	2.5	B	nonviolation	n/a	n/a
34.498422701028176	2.5	A	nonviolation	1	1.1172830519499255
37.498387024039395	2.5	B	nonviolation	1	1.0533182530198246
40.498347943997935	2.5	B	nonviolation	1	1.2473486170638353
43.49830554705113	2.5	B	nonviolation	1	1.077400228008628
46.498266453971155	2.5	B	nonviolation	0	1.2594403020339089
49.4982260930119	2.5	B	violation	0	0.8034828969975933
52.49819408997428	2.5	B	violation	0	1.0995150470407682
55.49815502704587	2.5	B	nonviolation	1	1.0985542259877548
58.49811092298478	2.5	A	nonviolation	1	0.7445970580447465
61.49807002802845	2.5	B	violation	1	1.4676432709675282
64.49802991596516	2.5	B	violation	1	2.1406782440608367
67.49799037305638	2.5	B	violation	0	0.7886480909073725
70.49795730796177	2.5	A	violation	1	0.7247572470223531
73.49791043496225	2.5	A	nonviolation	1	0.6287961300695315
76.49786841706373	2.5	B	nonviolation	0	1.2378516199532896
79.49783368699718	2.5	B	nonviolation	1	1.1748785859672353
82.49778861401137	2.5	B	violation	0	1.4729264799971131
85.49776626797394	2.5	B	violation	0	1.1739442740799857
88.49771619506645	2.5	A	violation	1	0.9489974019816144
91.49767228006384	2.5	A	violation	1	0.7450446869479492
94.49763345404062	2.5	A	nonviolation	1	0.9090920629678294
97.49760595301632	2.5	B	violation	1	0.9541096510365604
100.4975507389754	2.5	B	nonviolation	1	1.0681591430911794
103.49750957102516	2.5	B	nonviolation	0	1.1842344419565052
106.4974676360143	2.5	A	nonviolation	1	0.8102458879584447
109.49744536995422	2.5	A	violation	1	0.692264358047396
112.49740310106426	2.5	A	nonviolation	1	0.8953131469897926
115.49734883999918	2.5	B	violation	1	0.9213769950438292
118.49731047905516	2.5	A	nonviolation	1	0.7264066839125007
121.4972749570152	2.5	A	violation	1	0.7144399059470743
124.49725582101381	2.5	A	nonviolation	1	0.7484647940145805
127.49720750702544	2.5	B	violation	0	1.3685138509608803
130.49714900297113	2.5	A	violation	1	0.8315665860427544
133.49712213303428	2.5	B	violation	1	1.0266001269919798
136.49707466398831	2.5	A	violation	1	0.7746420640032738
139.49703421699814	2.5	B	nonviolation	1	1.1257018420146778
142.49699304206297	2.5	A	nonviolation	1	0.8087314378935844
145.4969657730544	2.5	B	nonviolation	1	0.9997559069888666
148.49690784304403	2.5	A	violation	1	0.8388106349157171
151.49687286198602	2.5	A	violation	1	0.8658547779778019
154.49684038199484	2.5	B	violation	1	1.174882775056176
157.4967924599769	2.5	A	violation	1	0.8189335219794884
160.49676299397834	2.5	B	nonviolation	0	1.0959583300864324
163.49672129703688	2.5	B	nonviolation	0	1.2390029409434646
166.4966779829701	2.5	B	nonviolation	1	0.9070486400742084
169.496632865048	2.5	A	nonviolation	1	0.7950949249789119
172.49658996006474	2.5	B	nonviolation	1	0.8731622089399025
175.4965454930207	2.5	A	violation	1	0.6531731029972434
178.49651158298366	2.5	A	violation	1	0.8171886290656403
181.49646647903137	2.5	B	violation	0	0.8582604089751841
184.49645868700463	2.5	A	violation	1	0.8122650539735332
187.49638709798455	2.5	B	violation	0	1.3103382369736207
190.4963457910344	2.5	B	nonviolation	1	0.6963024879805744
193.4963039690629	2.5	B	violation	1	0.8184241109993309
196.4962661570171	2.5	B	violation	1	0.938455368974246
199.49622132396325	2.5	A	violation	1	0.6125013440614566
202.49618444102813	2.5	A	violation	1	0.6325429179705679
205.49613999505527	2.5	B	violation	0	0.6746013769879937
208.49609752802644	2.5	B	violation	0	0.7126231759320945
211.49606162600685	2.5	A	nonviolation	1	1.0836636980529877
214.49605643597897	2.5	A	nonviolation	1	0.5776686550816521
217.49597992002964	2.5	A	nonviolation	1	0.7147448459872976
220.4959362259833	2.5	B	nonviolation	1	0.7427973640151322
223.49589429795742	2.5	A	nonviolation	1	0.9288367721019312
226.49585967801974	2.5	B	violation	1	1.279876385931857
229.49581783602483	2.5	B	nonviolation	1	0.9469164520269259
232.49577913095712	2.5	A	violation	1	0.7309485920704901
235.49572229199111	2.5	A	nonviolation	1	0.6100096510490403
238.49569541099478	2.5	B	violation	0	0.9900368420640008
241.49565098201856	2.5	B	nonviolation	0	1.0790796199580657
244.49565518496087	2.5	A	nonviolation	1	0.7090726930182427
247.49558149499356	2.5	A	violation	1	1.0000671830493957
250.49553045898207	2.5	A	nonviolation	1	0.6581658279756084
253.4954929200467	2.5	A	violation	1	0.7112401999766007
256.4954551500268	2.5	A	nonviolation	1	1.1402830709703269
259.4954117760062	2.5	A	nonviolation	1	0.6723243630258366
262.49538078904146	2.5	A	violation	1	0.6283505000174046
265.49532350501977	2.5	A	violation	1	0.7034066829364747
268.4952876350144	2.5	B	violation	0	0.8254487250233069
271.49524567404296	2.5	B	violation	0	1.055422503966838
274.4952334939735	2.5	A	violation	1	0.8445039540529251
277.49516706203576	2.5	B	violation	0	1.081574419979006
280.49513608205604	2.5	A	nonviolation	1	0.6775982439285144
283.4950941640418	2.5	B	nonviolation	0	1.3076441630255429
286.4950407950673	2.5	B	nonviolation	0	1.335699739982374
289.49500459700363	2.5	B	nonviolation	1	1.1297545389970765
292.4949601630214	2.5	B	violation	0	1.294778389041312
295.49492462596385	2.5	A	nonviolation	1	0.9838150930590928
298.49487746704835	2.5	B	nonviolation	0	1.4598625159123912
301.49484431697056	2.5	B	violation	0	1.5208977609872818
304.49481066397857	2.5	A	nonviolation	1	1.1339325200533494
307.49476130306715	2.5	B	nonviolation	0	1.4439820928964764
310.4947180199669	2.5	A	nonviolation	1	1.1500257099978626
313.49467855296103	2.5	B	nonviolation	1	1.1490623420104384
316.49463539198035	2.5	B	violation	0	0.8771115220151842
319.494604740059	2.5	A	violation	1	0.8781319109257311
322.49456431402365	2.5	B	nonviolation	1	0.8031795000424609
325.49451230303384	2.5	B	nonviolation	0	0.977232216973789
328.49448304704856	2.5	B	nonviolation	1	1.2062650859588755
331.4944406630238	2.5	A	nonviolation	1	0.8713019590359181
334.4944238959579	2.5	B	nonviolation	1	1.387314512045123
337.4943608350586	2.5	B	violation	0	1.3843832269776613
340.4943139930256	2.5	B	violation	0	1.1704098139889538
343.4942682030378	2.5	A	nonviolation	1	1.2744794039754197
346.4942333999788	2.5	B	violation	0	1.0845181910553947
349.4941864319844	2.5	A	violation	1	0.6664802740560845
352.4941450209589	2.5	B	nonviolation	1	0.6995991960866377
355.494115284062	2.5	A	nonviolation	1	0.932629280956462
358.4940777240554	2.5	A	nonviolation	1	0.8846766059286892
361.49402861599816	2.5	B	nonviolation	1	1.0527209599968046
364.4940123179695	2.5	A	nonviolation	1	0.8347374650184065
367.4939477329608	2.5	A	violation	1	0.8948012660257518
370.493907161057	2.5	B	nonviolation	1	0.7448423840105534
373.4938735070172	2.5	A	violation	1	0.9358791050035506
376.4938231400447	2.5	B	nonviolation	0	1.078928547911346
379.49379275902174	2.5	A	nonviolation	1	0.631955147953704
382.4937389260158	2.5	A	nonviolation	1	0.6020104589406401
385.4937018980272	2.5	A	nonviolation	1	0.5420494789723307
388.49366568506235	2.5	B	violation	0	0.7840877409325913
391.49362164398184	2.5	A	violation	1	0.7031304370611906
394.49362077401014	2.5	B	violation	1	0.6041303350357339
397.493534769048	2.5	A	violation	1	0.7822205419652164
400.49349511403125	2.5	B	violation	0	0.9492544969543816
403.49345812899986	2.5	A	violation	1	0.7062967730453238
406.49341287801514	2.5	B	violation	0	1.286341549013741
409.4933806220069	2.5	A	violation	1	0.7442951139528304
412.4933312700597	2.5	A	violation	1	0.7094231259543449
415.4933016509749	2.5	B	violation	0	1.1164550740504635
418.4932516380213	2.5	A	violation	1	0.7875074789626524
421.49320939905016	2.5	B	nonviolation	1	1.2105466349748897
424.49320710101165	2.5	A	nonviolation	1	0.7985593989724293
427.49313787999563	2.5	B	violation	1	1.3316215249942616
430.49308709206525	2.5	B	nonviolation	0	0.8766930958954617
433.4930461270269	2.5	A	violation	1	0.8897130879340693
436.49301465996535	2.5	B	violation	0	0.9257492300821468
439.49296967301046	2.5	A	violation	1	0.914788470021449
442.49292617803434	2.5	A	nonviolation	1	0.5918334169546142
445.4928878970677	2.5	B	nonviolation	0	0.6238649449078366
448.4928536460502	2.5	B	violation	0	1.3859079689718783
451.4927982869558	2.5	A	nonviolation	1	0.9429596530972048
454.4760833480395	2.5	B	nonviolation	1	1.0256802379153669
457.4760464930441	2.5	B	nonviolation	1	0.6467115649720654
460.4760065720184	2.5	A	nonviolation	1	0.5817499209661037
463.47596564900596	2.5	A	nonviolation	1	0.6037929990561679
466.49259956297465	2.5	B	violation	0	0.6931264310842379
469.49256831198	2.5	A	nonviolation	1	0.7281948060262948
472.47583706502337	2.5	B	violation	0	0.7149280960438773
475.4758006449556	2.5	A	violation	1	0.5639607720077038
478.47576585505163	2.5	A	nonviolation	1	0.8000008799135685
481.4757267220411	2.5	A	violation	1	0.6330359139246866
484.4756905169925	2.5	B	nonviolation	1	0.6570224090246484
487.4756389689865	2.5	B	nonviolation	0	1.0091269919648769
490.4756029340205	2.5	B	violation	0	0.8601600229740143
493.4755600079662	2.5	B	nonviolation	1	0.7782115810550749
496.47551548201585	2.5	A	violation	1	0.6332447800086811
499.4754786889534	2.5	A	violation	1	0.6102832540636882
502.47543588897685	2.5	B	violation	0	0.8023337670601904
505.475395548041	2.5	B	violation	1	0.6553670449648052
508.4753555799834	2.5	A	violation	1	0.5384084780234843
511.4753130360041	2.5	B	nonviolation	1	0.5664788750000298
514.4752762690188	2.5	B	nonviolation	1	0.588488774956204
517.4752311550546	2.5	B	violation	0	0.7464646819280459
520.4751902630087	2.5	B	violation	1	1.3425813929643482
523.4751500090351	2.5	A	nonviolation	1	0.6646388299996033
526.4751069740161	2.5	A	violation	1	0.6586562599986792
529.475083249039	2.5	B	nonviolation	1	0.6536845249356702
532.4750304860063	2.5	A	violation	1	0.6047371750464663
535.4750171350315	2.5	B	violation	0	0.8217553260037675
538.4749597590417	2.5	A	nonviolation	1	0.7698123999871314
541.4749333970249	2.5	B	violation	1	0.9638398740207776
544.4748917199904	2.5	A	nonviolation	1	0.6268791330512613
547.4748244569637	2.5	B	violation	1	1.240953493048437
550.4747786519583	2.5	A	nonviolation	1	0.5619959740433842
553.474759781966	2.5	A	nonviolation	1	0.7900142860598862
556.4747059009968	2.5	A	nonviolation	1	0.761065594968386
559.4746650110466	2.5	B	nonviolation	0	0.9341050590155646
562.4746139580384	2.5	A	violation	1	0.6221628249622881
565.4745793860639	2.5	A	nonviolation	1	1.0211967639625072
568.4745525290491	2.5	A	violation	1	0.6172307980014011
571.4745000919792	2.5	B	nonviolation	0	0.8022724339971319
574.474499791977	2.5	A	violation	1	0.5842769059818238
577.4744279490551	2.5	B	nonviolation	0	1.3253448359901083
580.4743895219872	2.5	A	violation	1	0.6363869470078498
583.4743504059734	2.5	A	violation	1	0.6134205909911543
586.4742944559547	2.5	B	violation	0	0.91247954510618
