onset	duration	trial_type	subcategory	response_accuracy	response_time
13.511845796834677	0.5	face	male	1	0.5647411257959902
15.011829052586108	0.5	face	male	1	0.4277553642168641
16.51180695183575	0.5	face	male	1	0.3847745028324425
18.011793623678386	0.5	face	female	1	0.4097904972732067
19.51176724396646	0.5	face	male	1	0.3987371097318828
21.011746573727578	0.5	face	male	1	0.45483511313796043
22.511728712823242	0.5	face	female	1	0.519879181869328
24.011710081715137	0.5	face	female	1	0.4748491761274636
25.511689867824316	0.5	face	female	1	0.37989137787371874
27.011676444672048	0.5	face	female	1	0.49393565207719803
43.51144550694153	0.5	object	natural	1	0.6101433336734772
45.011433018837124	0.5	object	manmade	1	0.5191590301692486
46.511413944885135	0.5	object	manmade	1	0.4831835310906172
48.01139888772741	0.5	object	natural	1	0.5741896750405431
49.51138049270958	0.5	object	natural	1	0.511213474906981
51.01135380985215	0.5	object	manmade	1	0.48423745995387435
52.51133157778531	0.5	object	manmade	1	0.5392570989206433
54.01130965678021	0.5	object	natural	1	0.488274693954736
55.51129904575646	0.5	object	manmade	1	0.5782949128188193
57.01126880897209	0.5	object	natural	1	0.5093454509042203
73.4943714607507	0.5	scene	indoor	1	0.61521803913638
74.99435401894152	0.5	scene	outdoor	0	0.5622411938384175
76.4943368146196	0.5	scene	outdoor	1	0.8692561001516879
78.01098751788959	0.5	scene	indoor	1	0.5176078709773719
79.49429178191349	0.5	scene	indoor	1	0.589296159800142
81.0109489406459	0.5	scene	outdoor	1	0.48264289321377873
82.49425664357841	0.5	scene	indoor	1	0.8783388272859156
83.9942384166643	0.5	scene	indoor	1	0.6423436431214213
85.49421489192173	0.5	scene	outdoor	1	0.5243816669099033
86.99419733695686	0.5	scene	outdoor	1	0.5913940048776567
103.49398014973849	0.5	scene	outdoor	1	0.5736124608665705
104.99396252864972	0.5	scene	outdoor	1	0.5726327123120427
106.4939542147331	0.5	scene	indoor	1	0.534640631172806
107.99391435878351	0.5	scene	indoor	1	0.5046812030486763
109.49389837961644	0.5	scene	indoor	1	0.5516929202713072
110.99387848284096	0.5	scene	outdoor	1	0.3877126360312104
112.49385343678296	0.5	scene	outdoor	1	0.6257516769692302
113.99383689882234	0.5	scene	indoor	1	0.5637564468197525
115.49381588958204	0.5	scene	indoor	1	0.6617838824167848
116.99379413900897	0.5	scene	outdoor	1	0.5368368858471513
133.4935807120055	0.5	face	female	1	0.5220122779719532
134.99355638679117	0.5	face	male	1	0.35304607078433037
136.4935511997901	0.5	face	male	1	0.4360512630082667
137.9935226798989	0.5	face	female	1	0.43307985784485936
139.49349613161758	0.5	face	female	1	0.5861040861345828
140.99347974685952	0.5	face	male	1	0.48712645284831524
142.49345593573526	0.5	face	male	1	0.4821399748325348
143.99344366695732	0.5	face	female	1	0.6491564158350229
145.49341722158715	0.5	face	male	1	0.731182734016329
146.99339195387438	0.5	face	female	1	0.6252101040445268
163.49317438155413	0.5	face	female	1	0.5014313664287329
164.99316278565675	0.5	face	female	1	0.4994400041177869
166.4980283868499	0.5	face	male	1	0.34757233085110784
167.99311190098524	0.5	face	female	1	0.4684909009374678
169.49309353390709	0.5	face	male	1	0.5355035676620901
170.99308474501595	0.5	face	female	1	0.5785481738857925
172.4930555028841	0.5	face	male	1	0.5885513317771256
173.99304302083328	0.5	face	female	1	0.5825660838745534
175.49303044797853	0.5	face	male	1	0.6985763716511428
176.9929936816916	0.5	face	male	1	0.5146188181824982
193.49277341458946	0.5	face	female	1	0.5158301959745586
194.99276728276163	0.5	face	female	1	0.5128398458473384
196.4971698760055	0.5	face	male	1	0.39343685656785965
197.99273062869906	0.5	face	male	1	0.3898760140873492
199.49268724396825	0.5	face	male	1	0.506916734855622
200.99268171098083	0.5	face	female	1	0.5109249548986554
202.4926500278525	0.5	face	female	1	0.6349585619755089
203.9926280057989	0.5	face	female	1	0.6099888198077679
205.49260866595432	0.5	face	male	1	0.44700005277991295
206.99259629892185	0.5	face	male	1	0.5630151559598744
223.49236820777878	0.5	scene	indoor	1	0.6092419540509582
224.99234610795975	0.5	scene	outdoor	1	0.4502593376673758
226.49478266900405	0.5	scene	indoor	1	0.545826077926904
227.99231062689796	0.5	scene	indoor	1	0.5522993640042841
229.4922902318649	0.5	scene	outdoor	1	0.9383198618888855
230.99226384656504	0.5	scene	indoor	1	0.6333481180481613
232.49224918382242	0.5	scene	outdoor	1	0.5023672878742218
233.99222497362643	0.5	scene	indoor	1	0.6103956550359726
235.49220834858716	0.5	scene	outdoor	1	0.5793987023644149
236.99218926485628	0.5	scene	outdoor	1	0.7363569219596684
253.49196359375492	0.5	object	manmade	1	0.5516507099382579
254.99194771097973	0.5	object	natural	1	0.5556690660305321
256.494174267631	0.5	object	manmade	1	0.42444461630657315
257.9919122438878	0.5	object	natural	1	0.4017032850533724
259.4918856360018	0.5	object	natural	1	0.42773868795484304
260.99186360184103	0.5	object	manmade	1	0.5297602340579033
262.49184028664604	0.5	object	manmade	1	0.5277708983048797
263.9918220578693	0.5	object	manmade	1	0.45178911089897156
265.4918023715727	0.5	object	natural	1	0.49581156205385923
266.99178793188184	0.5	object	natural	1	0.6208323538303375
283.49155709380284	0.5	scene	indoor	1	0.5620628539472818
284.991539450828	0.5	scene	outdoor	1	0.5820824378170073
286.4925510007888	0.5	scene	outdoor	1	0.44006587006151676
287.991500612814	0.5	scene	indoor	1	0.40811512479558587
289.49148498289287	0.5	scene	outdoor	1	0.6301346537657082
290.99146939162165	0.5	scene	outdoor	1	0.7351717632263899
292.4914406458847	0.5	scene	indoor	1	0.6761767100542784
293.9914182587527	0.5	scene	outdoor	1	0.6282087559811771
295.49140302371234	0.5	scene	indoor	1	0.576217973139137
296.99137945100665	0.5	scene	indoor	1	0.5412422958761454
313.4911615126766	0.5	face	male	1	0.4444520422257483
314.9911359548569	0.5	face	female	1	0.5104893730022013
316.49112774292007	0.5	face	female	1	0.5754916537553072
317.9910989445634	0.5	face	female	1	0.43851259304210544
319.4910765066743	0.5	face	male	1	0.43754491303116083
320.99106004368514	0.5	face	male	1	0.343567640054971
322.49103656364605	0.5	face	male	1	0.44458480132743716
323.9910151739605	0.5	face	female	1	0.5276087038218975
325.49099556868896	0.5	face	female	1	0.5416306280530989
326.99097622092813	0.5	face	male	1	0.514643918722868
343.4907581899315	0.5	object	natural	1	0.4948847619816661
344.9907432757318	0.5	object	natural	1	0.4968805192038417
346.4907240285538	0.5	object	manmade	1	0.46690640319138765
347.99070288287476	0.5	object	manmade	1	0.3379237209446728
349.4906837507151	0.5	object	manmade	1	0.38993745716288686
350.99065459379926	0.5	object	manmade	1	0.42197314416989684
352.490636406932	0.5	object	natural	1	0.48298769583925605
353.99061407195404	0.5	object	natural	1	0.41600467171519995
355.49059047875926	0.5	object	manmade	1	0.49803390307351947
356.9905702196993	0.5	object	natural	1	0.5590810501016676
373.49035408580676	0.5	object	manmade	1	0.5862760809250176
374.99032863462344	0.5	object	natural	1	0.4703461271710694
376.49032219778746	0.5	object	natural	1	0.423236430156976
377.9902894250117	0.5	object	natural	1	0.5202857935801148
379.4902691496536	0.5	object	natural	1	0.42135733319446445
380.9902483485639	0.5	object	natural	1	0.5173793341964483
382.4902277328074	0.5	object	manmade	1	0.44240307714790106
383.9902097219601	0.5	object	manmade	1	0.4424233608879149
385.49019402079284	0.5	object	manmade	1	0.8874403620138764
386.99017874198034	0.5	object	manmade	1	0.7714843438006938
403.48994572786614	0.5	scene	outdoor	1	0.9306822717189789
404.9899312229827	0.5	scene	indoor	1	0.543702267576009
406.4899191278964	0.5	scene	outdoor	1	0.5977203496731818
407.9898844929412	0.5	scene	indoor	1	0.5327505879104137
409.4898779746145	0.5	scene	indoor	1	0.7647870760411024
410.9898484069854	0.5	scene	outdoor	1	0.4937858609482646
412.48982630763203	0.5	scene	outdoor	1	0.46583345625549555
413.9898079209961	0.5	scene	outdoor	1	0.3488242495805025
415.4897840069607	0.5	scene	indoor	1	0.49085114197805524
416.9897691155784	0.5	scene	indoor	1	0.4569023894146085
433.48954034782946	0.5	object	manmade	1	0.6300986087881029
434.98952748067677	0.5	object	manmade	1	0.49310502922162414
436.48950483556837	0.5	object	manmade	1	0.47213421715423465
437.9894812698476	0.5	object	manmade	1	0.45615278370678425
439.48947525862604	0.5	object	natural	1	0.3821583651006222
440.9894400467165	0.5	object	natural	1	0.36519740894436836
442.48943058680743	0.5	object	natural	1	0.45521279890090227
443.9893989539705	0.5	object	natural	1	0.44324032962322235
445.48938316479325	0.5	object	natural	1	0.4762599770911038
446.98935866961256	0.5	object	manmade	1	0.5163052040152252
