onset	duration	trial_type	condition	repetition	pairmate	pairID	category	subcategory	response_accuracy	response_time
13.506808882113544	1	postlearning	violation	2.0	n/a	2.0	face	female	1.0	0.5015488930512221
16.506769994972274	1	postlearning	violation	2.0	n/a	32.0	face	male	1.0	0.41661566914990544
19.50672895205207	1	postlearning	violation	2.0	n/a	22.0	face	male	1.0	0.4956475291401148
22.506696721073236	1	postlearning	violation	2.0	n/a	37.0	face	male	1.0	0.41768338810652494
25.50664872513153	1	postlearning	violation	2.0	n/a	33.0	face	male	1.0	0.4367297869175673
28.50660661002621	1	postlearning	violation	2.0	n/a	31.0	face	female	1.0	0.4986984280403704
31.50657179998234	1	postlearning	violation	2.0	n/a	34.0	face	female	1.0	0.43981245602481067
34.50652927299961	1	postlearning	violation	2.0	n/a	8.0	face	male	1.0	0.4528516430873424
37.506489222170785	1	postlearning	violation	2.0	n/a	21.0	face	male	1.0	0.4927552929148078
40.50644918205217	1	postlearning	violation	2.0	n/a	32.0	face	male	1.0	0.5479350700043142
43.50640970515087	1	postlearning	violation	2.0	n/a	5.0	face	female	1.0	0.508920090040192
46.50637044105679	1	postlearning	violation	2.0	n/a	7.0	face	female	1.0	0.4759365289937705
49.50632878206671	1	postlearning	violation	2.0	n/a	23.0	face	female	1.0	0.4470723639242351
52.506286185001954	1	postlearning	violation	2.0	n/a	29.0	face	female	1.0	0.4280978171154857
55.506247826153405	1	postlearning	violation	2.0	n/a	42.0	face	male	1.0	0.4551469858270138
58.50620916904882	1	postlearning	violation	2.0	n/a	48.0	face	male	1.0	0.4931885269470513
61.50616794102825	1	postlearning	violation	2.0	n/a	31.0	face	female	1.0	0.8712010299786925
64.50612610811368	1	postlearning	violation	2.0	n/a	17.0	face	female	1.0	0.5232624330092221
67.50608790200204	1	postlearning	violation	2.0	n/a	15.0	face	female	1.0	0.532307893037796
70.50604710518381	1	postlearning	violation	2.0	n/a	10.0	face	male	1.0	0.5053466740064323
73.50600552302784	1	postlearning	violation	2.0	n/a	40.0	face	male	1.0	0.44933018111623824
76.50596703100018	1	postlearning	violation	2.0	n/a	7.0	face	female	1.0	0.4763501691631973
79.50592696596868	1	postlearning	violation	2.0	n/a	2.0	face	female	1.0	0.4714815660845488
82.50588577217421	1	postlearning	violation	2.0	n/a	9.0	face	female	1.0	0.4594207189511508
85.50584504706784	1	postlearning	violation	2.0	n/a	25.0	face	male	1.0	0.8725515811238438
88.50580652803183	1	postlearning	violation	2.0	n/a	18.0	face	female	1.0	0.4795858641155064
91.50576774100772	1	postlearning	violation	2.0	n/a	19.0	face	female	1.0	0.4736235071904957
94.50572345010004	1	postlearning	violation	2.0	n/a	26.0	face	female	1.0	0.5066661729943007
97.50568522908723	1	postlearning	violation	2.0	n/a	33.0	face	male	1.0	0.5127049840521067
100.5056444660295	1	postlearning	violation	2.0	n/a	29.0	face	female	1.0	0.4407500741071999
103.50560834817587	1	postlearning	violation	2.0	n/a	8.0	face	male	1.0	0.4947840489912778
106.50556373898873	1	postlearning	violation	2.0	n/a	36.0	face	female	1.0	0.4128310140222311
109.50552383810282	1	postlearning	violation	2.0	n/a	18.0	face	female	1.0	0.6348725259304047
112.5054832410533	1	postlearning	violation	2.0	n/a	28.0	face	male	1.0	0.41790889110416174
115.50544276717122	1	postlearning	violation	2.0	n/a	45.0	face	male	1.0	0.4749618389178067
118.50540265417658	1	postlearning	violation	2.0	n/a	3.0	face	male	1.0	0.5839171588886529
121.5053617961239	1	postlearning	violation	2.0	n/a	16.0	face	female	1.0	0.4300349240656942
124.50532215414567	1	postlearning	violation	2.0	n/a	5.0	face	female	1.0	0.4670705469325185
127.50528129702434	1	postlearning	violation	2.0	n/a	21.0	face	male	1.0	0.4621110721491277
130.5052383621223	1	postlearning	violation	2.0	n/a	38.0	face	female	1.0	0.44209700799547136
133.50520056206733	1	postlearning	violation	2.0	n/a	1.0	face	female	1.0	0.5811977859120816
136.5051578921266	1	postlearning	violation	2.0	n/a	16.0	face	female	1.0	0.4862379338592291
139.5051174350083	1	postlearning	violation	2.0	n/a	23.0	face	female	1.0	0.4952803931664676
142.50507817906328	1	postlearning	violation	2.0	n/a	11.0	face	female	1.0	0.5753507299814373
145.5050358660519	1	postlearning	violation	2.0	n/a	14.0	face	male	1.0	0.5043645850382745
148.5049982161727	1	postlearning	violation	2.0	n/a	43.0	face	female	1.0	0.43040764587931335
151.50495756417513	1	postlearning	violation	2.0	n/a	40.0	face	male	1.0	0.4145201239734888
154.50491477898322	1	postlearning	violation	2.0	n/a	47.0	face	female	1.0	0.43248227215372026
157.50487620709464	1	postlearning	violation	2.0	n/a	24.0	face	male	1.0	0.4615283960010856
160.50483572599478	1	postlearning	violation	2.0	n/a	26.0	face	female	1.0	0.4195618920493871
163.50480384612456	1	postlearning	violation	2.0	n/a	36.0	face	female	1.0	0.4465206488966942
166.50475392304358	1	postlearning	violation	2.0	n/a	11.0	face	female	1.0	0.4925631789956242
169.50471387710422	1	postlearning	violation	2.0	n/a	20.0	face	male	1.0	0.4456918218638748
172.50467302510518	1	postlearning	violation	2.0	n/a	39.0	face	male	1.0	0.5737249129451811
175.50463002012108	1	postlearning	violation	2.0	n/a	34.0	face	female	1.0	0.4167731960769743
178.50459337513894	1	postlearning	violation	2.0	n/a	38.0	face	female	1.0	0.4968045139685273
181.5045510130003	1	postlearning	violation	2.0	n/a	35.0	face	female	1.0	0.43484787410125136
184.50451023317876	1	postlearning	violation	2.0	n/a	44.0	face	female	1.0	0.5028958488255739
187.5044668649789	1	postlearning	violation	2.0	n/a	3.0	face	male	1.0	0.4689465560950339
190.50442859111354	1	postlearning	violation	2.0	n/a	12.0	face	male	1.0	0.4989775528665632
193.5043881919701	1	postlearning	violation	2.0	n/a	9.0	face	female	1.0	0.4630206690635532
196.5043471741956	1	postlearning	violation	2.0	n/a	13.0	face	male	1.0	0.7500279678497463
199.50430767214854	1	postlearning	violation	2.0	n/a	25.0	face	male	1.0	0.5340930060483515
202.5042661409825	1	postlearning	violation	2.0	n/a	28.0	face	male	1.0	0.4930618000216782
205.5042247271631	1	postlearning	violation	2.0	n/a	13.0	face	male	1.0	0.4801822749432176
208.5041843780782	1	postlearning	violation	2.0	n/a	46.0	face	male	1.0	0.5542196431197226
211.50414403714242	1	postlearning	violation	2.0	n/a	45.0	face	male	1.0	0.4042643699795008
214.50410317396745	1	postlearning	violation	2.0	n/a	20.0	face	male	1.0	0.4023021881002933
217.50406239414588	1	postlearning	violation	2.0	n/a	48.0	face	male	1.0	0.3893704158253968
220.50402163201943	1	postlearning	violation	2.0	n/a	37.0	face	male	1.0	0.49538239906542
223.5039810750168	1	postlearning	violation	2.0	n/a	1.0	face	female	1.0	0.4384339631069452
226.5039404979907	1	postlearning	violation	2.0	n/a	41.0	face	female	1.0	0.4114656150341034
229.50389915914275	1	postlearning	violation	2.0	n/a	17.0	face	female	1.0	0.3945112889632583
232.5038586801384	1	postlearning	violation	2.0	n/a	47.0	face	female	1.0	0.4185492568649352
235.50381820299663	1	postlearning	violation	2.0	n/a	24.0	face	male	1.0	0.4405885150190443
238.48713022912847	1	postlearning	violation	2.0	n/a	46.0	face	male	1.0	0.4742810958996415
241.4870672461111	1	postlearning	violation	2.0	n/a	19.0	face	female	1.0	0.4563412859570235
244.48702599317767	1	postlearning	violation	2.0	n/a	6.0	face	male	1.0	0.4723835049662739
247.4869927209802	1	postlearning	violation	2.0	n/a	27.0	face	male	1.0	0.5504910761956125
250.486944940174	1	postlearning	violation	2.0	n/a	10.0	face	male	1.0	0.4614678879734129
253.48696159198883	1	postlearning	violation	2.0	n/a	4.0	face	male	1.0	0.453446158207953
256.48686483409256	1	postlearning	violation	2.0	n/a	12.0	face	male	1.0	0.4435507028829305
259.4868421081919	1	postlearning	violation	2.0	n/a	4.0	face	male	1.0	0.4205727558583021
262.48678598203696	1	postlearning	violation	2.0	n/a	41.0	face	female	1.0	0.4736230031121522
265.4867445300333	1	postlearning	violation	2.0	n/a	27.0	face	male	1.0	0.5046657449565828
268.48670463310555	1	postlearning	violation	2.0	n/a	14.0	face	male	1.0	0.4407138440292329
271.4866633361671	1	postlearning	violation	2.0	n/a	43.0	face	female	1.0	0.4937555829528719
274.48662280198187	1	postlearning	violation	2.0	n/a	44.0	face	female	1.0	0.4707922160159797
277.4865816861857	1	postlearning	violation	2.0	n/a	39.0	face	male	1.0	0.4848408307880163
280.48653921997175	1	postlearning	violation	2.0	n/a	30.0	face	female	1.0	0.4298816241789609
283.4865005200263	1	postlearning	violation	2.0	n/a	15.0	face	female	1.0	0.4439246950205416
286.4864596251864	1	postlearning	violation	2.0	n/a	42.0	face	male	1.0	0.4229747490026057
289.4864189149812	1	postlearning	violation	2.0	n/a	6.0	face	male	1.0	0.4589219060726464
292.4863786441274	1	postlearning	violation	2.0	n/a	30.0	face	female	1.0	0.5550389490090311
295.4863374081906	1	postlearning	violation	2.0	n/a	22.0	face	male	1.0	0.4350810039322823
298.48629388096737	1	postlearning	violation	2.0	n/a	35.0	face	female	1.0	0.5431280180346221
