onset	duration	trial_type	condition	repetition	pairmate	pairID	category	subcategory	response_accuracy	response_time
13.509692343999633	1	prelearning	violation	1	B	28	scene	outdoor	1	0.5660940259695053
16.509655941976234	1	prelearning	violation	1	A	25	scene	indoor	1	0.5661388590233399
19.509617713978514	1	prelearning	nonviolation	1	A	79	scene	indoor	1	0.448211667011492
22.509563539992083	1	prelearning	violation	1	A	32	scene	indoor	1	0.5762960800202563
25.50952480803244	1	prelearning	nonviolation	1	A	77	scene	indoor	1	0.6313341569621116
28.509487509028983	1	prelearning	violation	1	B	29	scene	outdoor	1	0.7373743529897183
31.50945587002207	1	prelearning	violation	1	B	30	scene	outdoor	1	0.5434094609227031
34.509406247991144	1	prelearning	violation	1	B	32	scene	indoor	1	0.6344783459790051
37.50937102199532	1	prelearning	nonviolation	1	B	76	scene	indoor	1	0.7794903690228239
40.50933253299445	1	prelearning	violation	1	B	25	scene	indoor	1	0.5915384769905359
43.509287302033044	1	prelearning	violation	1	A	31	scene	outdoor	1	0.628574704984203
46.50925341399853	1	prelearning	nonviolation	1	A	75	scene	outdoor	0	0.6566132960142568
49.509213548968546	1	prelearning	violation	1	B	26	scene	indoor	1	0.5686501730233431
52.50917284202296	1	prelearning	violation	1	A	30	scene	indoor	1	0.5706928649451584
55.50913228699938	1	prelearning	nonviolation	1	A	76	scene	indoor	1	0.6877336170291528
58.50909284304361	1	prelearning	violation	1	B	27	scene	indoor	0	0.5037743319990113
61.509047155966975	1	prelearning	violation	1	A	29	scene	indoor	1	0.497817000024952
64.50900392793119	1	prelearning	nonviolation	1	A	74	scene	indoor	1	0.6458651120774448
67.5089800299611	1	prelearning	violation	1	A	28	scene	outdoor	1	0.8318901150487363
70.50892386201303	1	prelearning	violation	1	B	31	scene	outdoor	1	0.4659422120312229
73.50888327497523	1	prelearning	violation	1	A	26	scene	outdoor	1	0.6419820330338553
76.50884774501901	1	prelearning	nonviolation	1	B	79	scene	indoor	1	0.8450210209703073
79.50880450196564	1	prelearning	nonviolation	1	B	73	scene	indoor	1	0.5870598100591451
82.50877063395454	1	prelearning	nonviolation	1	B	77	scene	outdoor	1	0.6831097149988636
85.5087225260213	1	prelearning	nonviolation	1	B	78	scene	outdoor	1	0.6441518899518996
88.50869431300089	1	prelearning	nonviolation	1	B	75	scene	indoor	1	0.4851795060094446
91.50864396092949	1	prelearning	nonviolation	1	B	80	scene	outdoor	0	0.5712257090490311
94.50860970793293	1	prelearning	nonviolation	1	A	78	scene	outdoor	1	0.7662677470361814
97.508568026009	1	prelearning	nonviolation	1	A	73	scene	outdoor	1	0.485301955952309
100.50852142099757	1	prelearning	nonviolation	1	A	80	scene	outdoor	1	0.565348356962204
103.508483728976	1	prelearning	violation	1	A	27	scene	outdoor	1	0.5923896189779043
106.5084494149778	1	prelearning	nonviolation	1	B	74	scene	outdoor	1	0.5364227909594774
109.5084020140348	1	learning	violation	2	A	25	scene	indoor	1	0.6614808529848233
112.50836016098036	1	learning	violation	2	B	25	scene	indoor	1	0.5725124529562889
115.50832758203615	1	learning	nonviolation	2	A	73	scene	outdoor	1	0.5975480799097568
118.50827772403136	1	learning	nonviolation	2	B	73	scene	indoor	1	0.8696033309679478
121.49156074295752	1	learning	nonviolation	2	A	74	scene	indoor	1	0.6142290510470048
124.50819911202416	1	learning	nonviolation	2	B	74	scene	outdoor	1	0.5346741869580001
127.49148078297729	1	learning	nonviolation	2	A	75	scene	outdoor	1	0.7303986500483006
130.5081155520165	1	learning	nonviolation	2	B	75	scene	indoor	0	0.6877662310143933
133.50808366201818	1	learning	violation	2	A	26	scene	outdoor	1	0.5138088879175484
136.49135912803467	1	learning	violation	2	B	26	scene	indoor	1	0.7685154399368912
139.50800075393636	1	learning	violation	2	A	27	scene	outdoor	1	0.5528707120101899
142.49127535894513	1	learning	violation	2	B	27	scene	indoor	0	0.5115969959879294
145.4912337999558	1	learning	violation	2	A	28	scene	outdoor	1	0.5426473270636052
148.49119137402158	1	learning	violation	2	B	28	scene	outdoor	0	0.6376816349802539
151.4911518639419	1	learning	violation	2	A	29	scene	indoor	1	0.6047222430352122
154.491112601012	1	learning	violation	2	B	29	scene	outdoor	1	0.42676647601183504
157.4910689019598	1	learning	violation	2	A	30	scene	indoor	1	0.5028073110152036
160.49104068102315	1	learning	violation	2	B	30	scene	outdoor	1	0.4748347540153191
163.49099678802304	1	learning	nonviolation	3	A	74	scene	indoor	0	0.5028809339273721
166.4909546879353	1	learning	nonviolation	3	B	74	scene	outdoor	1	0.6069245070684701
169.4909137620125	1	learning	nonviolation	2	A	76	scene	indoor	0	0.7619653999572621
172.49087184201923	1	learning	nonviolation	2	B	76	scene	indoor	1	0.5920183479320258
175.4908313699998	1	learning	violation	3	A	29	scene	indoor	1	0.6170508039649576
178.4907931770431	1	learning	violation	3	B	29	scene	outdoor	1	0.5520861259428784
181.49075254797933	1	learning	violation	3	A	27	scene	outdoor	0	0.7781314570456743
184.4907136550173	1	learning	violation	3	B	27	scene	indoor	0	0.5691707439254969
187.49066839902665	1	learning	violation	3	A	30	scene	indoor	1	0.5452191379154101
190.49062788195442	1	learning	violation	3	B	30	scene	outdoor	1	0.6192541170166805
193.4905878819991	1	learning	nonviolation	3	A	75	scene	outdoor	1	0.6162928330013528
196.4905501540052	1	learning	nonviolation	3	B	75	scene	indoor	1	0.522325822035782
199.4905077000149	1	learning	nonviolation	2	A	77	scene	indoor	1	0.5143790879519656
202.49046513799115	1	learning	nonviolation	2	B	77	scene	outdoor	1	0.5744203620124608
205.4904259579489	1	learning	nonviolation	2	A	78	scene	outdoor	1	0.5814586950000376
208.49038338602986	1	learning	nonviolation	2	B	78	scene	outdoor	1	0.6634981610113755
211.49034078093246	1	learning	violation	3	A	26	scene	outdoor	1	0.4925436000339687
214.4903025199892	1	learning	violation	3	B	26	scene	indoor	1	0.5255909690167755
217.49026153201703	1	learning	violation	3	A	25	scene	indoor	1	0.6126235140254721
220.4902216870105	1	learning	violation	3	B	25	scene	indoor	1	0.631661721970886
223.49017874896526	1	learning	nonviolation	3	A	78	scene	outdoor	1	0.7357111150631681
226.49013652093709	1	learning	nonviolation	3	B	78	scene	outdoor	1	0.5587570640491322
229.49009612202644	1	learning	nonviolation	3	A	73	scene	outdoor	1	0.5587882070103659
232.4900552940089	1	learning	nonviolation	3	B	73	scene	indoor	1	0.9228319179965184
235.4900145769352	1	learning	nonviolation	4	A	75	scene	outdoor	1	0.5648745740763843
238.4899729399476	1	learning	nonviolation	4	B	75	scene	indoor	0	0.6029188149841502
241.48993409296963	1	learning	violation	4	A	25	scene	indoor	1	0.5179557970259339
244.48988896398805	1	learning	violation	4	B	25	scene	indoor	1	0.5730001420015469
247.4898514649831	1	learning	violation	4	A	30	scene	indoor	1	0.5230467889923602
250.48980650503654	1	learning	violation	4	B	30	scene	outdoor	1	0.5380860269069672
253.489769621985	1	restudy	nonviolation	5	B	75	scene	indoor	1	0.5821206009713933
256.48972928593867	1	learning	violation	4	A	27	scene	outdoor	1	0.5251606469973922
259.4896858240245	1	learning	violation	4	B	27	scene	indoor	0	0.5692080309381709
262.4896457339637	1	learning	violation	3	A	28	scene	outdoor	1	0.5472468449734151
265.4896038690349	1	learning	violation	3	B	28	scene	outdoor	1	0.6032864759908989
268.4896191960433	1	restudy	nonviolation	6	B	75	scene	indoor	1	0.7332729109330103
271.4895220529288	1	learning	violation	4	A	29	scene	indoor	0	0.7093764480669051
274.48948327300604	1	learning	violation	4	B	29	scene	outdoor	1	0.4974116309313104
277.48945216997527	1	learning	nonviolation	3	A	76	scene	indoor	1	0.6654375710058957
280.4894024330424	1	learning	nonviolation	3	B	76	scene	indoor	1	0.548492006957531
283.48937515204307	1	learning	nonviolation	4	A	74	scene	indoor	1	0.4905190039426088
286.4893181839725	1	learning	nonviolation	4	B	74	scene	outdoor	1	0.5525847730459645
289.4892849799944	1	learning	violation	4	A	26	scene	outdoor	1	0.926608553971164
292.48925416299613	1	learning	violation	4	B	26	scene	indoor	1	0.487642947002314
295.4892122599995	1	violation	violation	5	A	29	scene	indoor	1	0.4796840669587255
298.48917417495977	1	violation	violation	1	X	29	face	male	1	0.8567250610794872
301.48912949697115	1	learning	nonviolation	3	A	77	scene	indoor	1	0.5137685530353338
304.4890766600147	1	learning	nonviolation	3	B	77	scene	outdoor	1	0.4598219780018553
307.48904137394857	1	learning	nonviolation	2	A	79	scene	indoor	1	0.6668879530625418
310.4890056010336	1	learning	nonviolation	2	B	79	scene	indoor	1	0.8938895999453962
313.4889666129602	1	restudy	nonviolation	5	B	74	scene	outdoor	1	0.9269338430603966
316.4889111999655	1	learning	nonviolation	4	A	78	scene	outdoor	1	0.6359842909732834
319.4888719229493	1	learning	nonviolation	4	B	78	scene	outdoor	1	0.540028739022091
322.48884164995985	1	learning	nonviolation	4	A	73	scene	outdoor	1	0.6750596510246396
325.48878926294856	1	learning	nonviolation	4	B	73	scene	indoor	1	0.5221161810914055
328.48874148598406	1	violation	violation	5	A	27	scene	outdoor	1	0.4951588630210608
331.48870474402787	1	violation	violation	1	X	27	face	female	0	0.556194455944933
334.48866598901805	1	learning	violation	2	A	31	scene	outdoor	1	0.550239045987837
337.48862526193267	1	learning	violation	2	B	31	scene	outdoor	1	0.5632762630702928
340.4885959200328	1	violation	violation	5	A	25	scene	indoor	1	0.5843136669136584
343.48855636897497	1	violation	violation	1	X	25	face	female	1	0.568341962993145
346.48849576199433	1	violation	violation	5	A	30	scene	indoor	1	0.7694041730137542
349.4884698359529	1	violation	violation	1	X	30	face	male	0	0.6624277470400557
352.4884189859731	1	restudy	nonviolation	5	B	73	scene	indoor	1	1.1004912040662023
355.48839258693624	1	violation	violation	5	A	26	scene	outdoor	1	0.4485099191078916
358.48833574494347	1	violation	violation	1	X	26	face	female	0	0.6125703690340742
361.48829533101525	1	learning	violation	2	A	32	scene	indoor	1	0.6466058699879795
364.4882513029734	1	learning	violation	2	B	32	scene	indoor	1	0.6156554450280964
367.48820723500097	1	learning	nonviolation	4	A	76	scene	indoor	0	0.9556982989888638
370.4881663549458	1	learning	nonviolation	4	B	76	scene	indoor	1	0.5107424580492079
373.48813409800636	1	learning	violation	4	A	28	scene	outdoor	1	0.5677686790004373
376.4880840199767	1	learning	violation	4	B	28	scene	outdoor	1	0.6368239800212905
379.48805142799387	1	restudy	violation	5	B	30	scene	outdoor	1	0.5008591270307079
382.48800418199966	1	restudy	nonviolation	6	B	74	scene	outdoor	1	0.5919059870066121
385.48796537693113	1	learning	nonviolation	4	A	77	scene	indoor	1	0.5369477790081874
388.48793102393387	1	learning	nonviolation	4	B	77	scene	outdoor	1	0.5609793670009822
391.48788537702063	1	learning	nonviolation	3	A	79	scene	indoor	1	0.6220251719933003
394.487850202946	1	learning	nonviolation	3	B	79	scene	indoor	0	1.005051754997112
397.4878105659736	1	violation	violation	5	A	28	scene	outdoor	1	0.7271045569796115
400.48775583098177	1	violation	violation	1	X	28	face	male	0	0.7641535679576918
403.4877284449758	1	restudy	nonviolation	5	B	78	scene	outdoor	1	0.7831864949548617
406.48767753201537	1	restudy	violation	5	B	29	scene	outdoor	1	0.5602240050211549
409.48763633600896	1	learning	violation	3	A	31	scene	outdoor	1	0.6992734200321138
412.48759971198166	1	learning	violation	3	B	31	scene	outdoor	1	0.4953146999469027
415.4875536559848	1	restudy	nonviolation	5	B	76	scene	indoor	1	0.5743640810251236
418.487518394948	1	restudy	nonviolation	6	B	73	scene	indoor	1	0.5633944500004873
421.48747579602065	1	restudy	violation	5	B	26	scene	indoor	1	0.5484374419320375
424.4874349429738	1	restudy	violation	5	B	25	scene	indoor	1	0.5814807310234755
427.48738911096007	1	restudy	violation	5	B	27	scene	indoor	0	0.6245253260713071
430.48735518998	1	learning	nonviolation	4	A	79	scene	indoor	1	0.4965564250014722
433.4873047859874	1	learning	nonviolation	4	B	79	scene	indoor	1	0.5996073799906299
436.48726092895964	1	learning	nonviolation	2	A	80	scene	outdoor	1	0.6406515439739451
439.4872365730116	1	learning	nonviolation	2	B	80	scene	outdoor	1	0.5186762700323015
442.4871806449955	1	restudy	violation	5	B	28	scene	outdoor	1	0.5177308600395918
445.4871394409565	1	violation	violation	6	A	30	scene	indoor	1	0.4347781459800899
448.4870998170227	1	violation	violation	1	Y	30	face	male	1	0.6468205510172993
451.48706686194055	1	restudy	nonviolation	6	B	78	scene	outdoor	1	1.0068410680396482
454.4870143600274	1	learning	violation	3	A	32	scene	indoor	1	0.5589047719258815
457.4869823190384	1	learning	violation	3	B	32	scene	indoor	n/a	n/a
460.4869353339309	1	learning	nonviolation	3	A	80	scene	outdoor	1	0.4939811211079359
463.4868993689306	1	learning	nonviolation	3	B	80	scene	outdoor	1	0.5090197561075911
466.48685886699235	1	restudy	nonviolation	6	B	76	scene	indoor	1	0.4990621339529753
469.4868105429923	1	learning	violation	4	A	32	scene	indoor	1	0.4741079580271617
472.48677761293953	1	learning	violation	4	B	32	scene	indoor	1	0.5321374150225893
475.4867286999943	1	restudy	nonviolation	5	B	77	scene	outdoor	1	0.4161924610380083
478.4866914169397	1	learning	nonviolation	4	A	80	scene	outdoor	1	0.5902266399934888
481.48664554103743	1	learning	nonviolation	4	B	80	scene	outdoor	1	0.5712712799431756
484.4866087640403	1	violation	violation	6	A	26	scene	outdoor	1	0.6253077948931605
487.48657399404334	1	violation	violation	1	Y	26	face	female	0	0.5353466579690576
490.486518034013	1	learning	violation	4	A	31	scene	outdoor	1	0.5984019039897248
493.486481218948	1	learning	violation	4	B	31	scene	outdoor	1	0.5344353540567681
496.4864446240245	1	violation	violation	6	A	29	scene	indoor	1	0.5544742479687557
499.48640532093117	1	violation	violation	1	Y	29	face	male	1	0.7675390880322084
502.4863629169995	1	restudy	violation	6	B	30	scene	outdoor	1	0.9545567790046334
505.4863157309592	1	restudy	violation	6	B	26	scene	indoor	1	0.5336129700299352
508.48628787300555	1	violation	violation	5	A	32	scene	indoor	1	0.6126316860318184
511.48623961198615	1	violation	violation	1	X	32	face	female	1	0.7126841469435021
514.4861983710434	1	violation	violation	6	A	25	scene	indoor	1	0.5327292509609833
517.4861565909814	1	violation	violation	1	Y	25	face	female	1	0.5517363060498609
520.4861092700157	1	restudy	nonviolation	5	B	79	scene	indoor	1	0.6868226960068569
523.4860723119928	1	restudy	nonviolation	5	B	80	scene	outdoor	1	0.5968595379963517
526.4860335770063	1	violation	violation	6	A	27	scene	outdoor	1	0.46389267698396003
529.4859870229849	1	violation	violation	1	Y	27	face	female	1	0.6799053660361096
532.4859435060062	1	restudy	violation	6	B	29	scene	outdoor	1	0.5569852360058576
535.4859053629916	1	restudy	violation	5	B	32	scene	indoor	1	0.5210214710095897
538.4858602619497	1	violation	violation	6	A	28	scene	outdoor	1	0.5450721320230514
541.4858546779724	1	violation	violation	1	Y	28	face	male	1	0.7880717460066079
544.4857855449662	1	violation	violation	5	A	31	scene	outdoor	1	1.0671417909907177
547.4857384519419	1	violation	violation	1	X	31	face	male	1	0.5381272280355915
550.4856962580234	1	restudy	nonviolation	6	B	77	scene	outdoor	1	0.5082376640057191
553.4856578289764	1	restudy	violation	6	B	28	scene	outdoor	1	0.5432723179692402
556.4856213349849	1	restudy	violation	5	B	31	scene	outdoor	1	0.8633204660145566
559.4855756849283	1	restudy	nonviolation	6	B	79	scene	indoor	1	0.5293549610069022
562.4855399379741	1	violation	violation	6	A	32	scene	indoor	1	0.5313885130453855
565.4854962209937	1	violation	violation	1	Y	32	face	female	0	0.5474326169351116
568.4687682029327	1	violation	violation	6	A	31	scene	outdoor	1	0.4490962791023776
571.4854153629858	1	violation	violation	1	Y	31	face	male	1	0.5765191019745544
574.4686899769587	1	restudy	nonviolation	6	B	80	scene	outdoor	1	0.5082405700813979
577.4686509059975	1	restudy	violation	6	B	32	scene	indoor	1	0.6192795089446008
580.4686063099653	1	restudy	violation	6	B	31	scene	outdoor	1	0.5263251920696348
583.4685671009356	1	restudy	violation	6	B	25	scene	indoor	1	0.6553657960612327
586.4685340749566	1	restudy	violation	6	B	27	scene	indoor	0	0.5534034860320389
