onset	duration	trial_type	condition	repetition	pairmate	pairID	category	subcategory	response_accuracy	response_time
13.500689581007464	1	prelearning	nonviolation	1	B	50	scene	indoor	1	0.6895639629947254
16.50065318700217	1	prelearning	nonviolation	1	B	51	scene	outdoor	1	0.6710817319981288
19.50060999400739	1	prelearning	nonviolation	1	A	56	scene	outdoor	1	0.6616430649883114
22.500574655001397	1	prelearning	violation	1	A	2	scene	indoor	1	0.5476769719971344
25.500533487007488	1	prelearning	nonviolation	1	A	50	scene	indoor	1	0.5627138830022886
28.500494391002572	1	prelearning	violation	1	A	5	scene	outdoor	1	0.5687676749948878
31.500454906999952	1	prelearning	violation	1	B	6	scene	indoor	0	0.4537992109981133
34.50041587100713	1	prelearning	violation	1	B	3	scene	outdoor	1	0.6118343129928691
37.50037666299613	1	prelearning	nonviolation	1	A	49	scene	outdoor	1	0.596872609006823
40.50033696599712	1	prelearning	nonviolation	1	B	53	scene	indoor	1	0.6619143150019227
43.50029919100052	1	prelearning	violation	1	B	4	scene	indoor	1	0.6259499680018052
46.50025802500022	1	prelearning	nonviolation	1	A	51	scene	indoor	1	0.5830007559998194
49.500218784000026	1	prelearning	violation	1	A	7	scene	outdoor	1	0.7300408559967764
52.500179160007974	1	prelearning	nonviolation	1	A	54	scene	outdoor	1	0.5950799939892022
55.500139862997464	1	prelearning	violation	1	B	2	scene	indoor	1	0.5691141050047008
58.50010055700841	1	prelearning	violation	1	B	8	scene	indoor	1	0.6481582339911256
61.5000587819959	1	prelearning	nonviolation	1	B	49	scene	outdoor	1	0.5341923290106934
64.50002134300304	1	prelearning	violation	1	B	5	scene	outdoor	1	0.5812386839970713
67.49998196899833	1	prelearning	nonviolation	1	B	56	scene	outdoor	1	0.5942724400083534
70.4999425749993	1	prelearning	violation	1	A	6	scene	outdoor	1	0.8082320109970169
73.49990249199618	1	prelearning	nonviolation	1	A	55	scene	outdoor	1	0.640360055011115
76.49986291299865	1	prelearning	nonviolation	1	A	52	scene	indoor	1	0.5053921939979773
79.499823406004	1	prelearning	violation	1	A	8	scene	outdoor	1	0.9844319830008316
82.49978159600869	1	prelearning	violation	1	B	1	scene	outdoor	1	0.46347721999336494
85.49974409199784	1	prelearning	nonviolation	1	B	55	scene	indoor	1	0.4665149390057195
88.49970405700151	1	prelearning	violation	1	B	7	scene	outdoor	1	0.5255560560035519
91.49966439399576	1	prelearning	violation	1	A	4	scene	indoor	1	0.5475966100057121
94.4996273709985	1	prelearning	violation	1	A	3	scene	indoor	1	0.5805505510070361
97.49958448600955	1	prelearning	nonviolation	1	B	54	scene	indoor	1	0.5056804869964253
100.4995444160013	1	prelearning	violation	1	A	1	scene	indoor	n/a	n/a
103.49950461300614	1	prelearning	nonviolation	1	A	53	scene	indoor	1	0.5317534089990659
106.49946519899822	1	prelearning	nonviolation	1	B	52	scene	outdoor	1	0.5077372250088956
109.49942281300899	1	learning	nonviolation	2	A	49	scene	outdoor	1	0.4528438199922675
112.49938484800803	1	learning	nonviolation	2	B	49	scene	outdoor	1	0.6158778050012188
115.49934579699766	1	learning	violation	2	A	1	scene	indoor	1	0.5909099970012903
118.49930267600577	1	learning	violation	2	B	1	scene	outdoor	1	0.4779674579913262
121.49926465100724	1	learning	nonviolation	2	A	50	scene	indoor	1	0.4470009639917407
124.49922127100581	1	learning	nonviolation	2	B	50	scene	indoor	1	0.6311192239954835
127.49918468500256	1	learning	nonviolation	2	A	51	scene	indoor	1	0.4980746009969153
130.49914248399728	1	learning	nonviolation	2	B	51	scene	outdoor	1	0.5821216309996089
133.4991046290088	1	learning	nonviolation	2	A	52	scene	indoor	1	0.4851619389955886
136.49906432299758	1	learning	nonviolation	2	B	52	scene	outdoor	1	0.4842025060061133
139.49902257500798	1	learning	violation	2	A	2	scene	indoor	1	0.4742370409949217
142.49898524700257	1	learning	violation	2	B	2	scene	indoor	1	0.5103016509965528
145.49894376299926	1	learning	nonviolation	3	A	50	scene	indoor	1	0.6403189620032208
148.49890332900395	1	learning	nonviolation	3	B	50	scene	indoor	0	0.4823695959930774
151.49886734799657	1	learning	nonviolation	3	A	49	scene	outdoor	1	0.5203962680097902
154.49882033000176	1	learning	nonviolation	3	B	49	scene	outdoor	1	0.4144752639986109
157.49878297100074	1	learning	nonviolation	3	A	52	scene	indoor	1	0.6444206400046824
160.49874284300313	1	learning	nonviolation	3	B	52	scene	outdoor	1	0.4865215680038091
163.49870238400763	1	learning	nonviolation	2	A	53	scene	indoor	1	0.5795373199944152
166.4986623660079	1	learning	nonviolation	2	B	53	scene	indoor	1	0.8006065069930628
169.49862190699787	1	learning	violation	3	A	1	scene	indoor	1	0.9906609050085536
172.4985820820002	1	learning	violation	3	B	1	scene	outdoor	1	0.5726831530046184
175.49853779500702	1	learning	violation	2	A	3	scene	indoor	1	0.4797316749900346
178.49850341700952	1	learning	violation	2	B	3	scene	outdoor	1	0.493773213995155
181.49846055899982	1	learning	nonviolation	4	A	49	scene	outdoor	1	0.4828136169962818
184.4984203759959	1	learning	nonviolation	4	B	49	scene	outdoor	1	0.4938449750043219
187.49837783700787	1	learning	nonviolation	4	A	52	scene	indoor	1	0.5188964499975555
190.4983396760072	1	learning	nonviolation	4	B	52	scene	outdoor	1	0.5359277429961367
193.49830166000172	1	learning	nonviolation	3	A	53	scene	indoor	1	0.5519722180033568
196.49825886500184	1	learning	nonviolation	3	B	53	scene	indoor	1	0.5680129770044005
199.49821667400832	1	learning	violation	2	A	4	scene	indoor	1	0.531067190997419
202.49817836300645	1	learning	violation	2	B	4	scene	indoor	1	0.6271069490030641
205.4981378320081	1	learning	nonviolation	4	A	50	scene	indoor	1	0.502997316987603
208.49809745799573	1	learning	nonviolation	4	B	50	scene	indoor	1	0.8561898160114652
211.49805712100348	1	learning	violation	4	A	1	scene	indoor	1	0.5581375740002841
214.49801700600074	1	learning	violation	4	B	1	scene	outdoor	1	0.4702560370060382
217.49797459899852	1	restudy	nonviolation	5	B	52	scene	outdoor	1	0.5713026150042424
220.4979359770077	1	learning	violation	3	A	3	scene	indoor	1	0.4938257600006182
223.49789348100606	1	learning	violation	3	B	3	scene	outdoor	1	0.6043906529957894
226.4978549610096	1	restudy	nonviolation	5	B	49	scene	outdoor	1	0.5464301419997355
229.4978168430098	1	learning	nonviolation	3	A	51	scene	indoor	1	0.7454578709875932
232.49777233600616	1	learning	nonviolation	3	B	51	scene	outdoor	1	0.6225048389896983
235.4977323790081	1	learning	violation	2	A	5	scene	outdoor	1	0.5885427789908135
238.49769158099662	1	learning	violation	2	B	5	scene	outdoor	1	0.5885823660064489
241.49765256600224	1	learning	violation	3	A	2	scene	indoor	1	0.5316276590019697
244.4976124600071	1	learning	violation	3	B	2	scene	indoor	1	0.5976687869988382
247.49757120100548	1	violation	violation	5	A	1	scene	indoor	1	0.7097157109965337
250.49752979200275	1	violation	violation	1	X	1	face	male	1	0.7947519839945016
253.49749092200364	1	learning	nonviolation	4	A	51	scene	indoor	1	0.6798068089992739
256.4974501700053	1	learning	nonviolation	4	B	51	scene	outdoor	1	0.5627156539994758
259.4974091870099	1	restudy	nonviolation	5	B	50	scene	indoor	1	0.8128990519908257
262.4973691720079	1	learning	violation	3	A	5	scene	outdoor	1	0.5923990779992891
265.49732864000543	1	learning	violation	3	B	5	scene	outdoor	1	0.5469552970025688
268.4972879150009	1	learning	violation	3	A	4	scene	indoor	1	0.6989892120036529
271.49724739299563	1	learning	violation	3	B	4	scene	indoor	1	0.7390298300015274
274.49720831000013	1	restudy	nonviolation	6	B	50	scene	indoor	1	0.5390756150009111
277.4971630840009	1	learning	violation	2	A	6	scene	outdoor	1	0.6011187020048965
280.4971259209997	1	learning	violation	2	B	6	scene	indoor	1	0.7761755060055293
283.49708537400875	1	restudy	nonviolation	6	B	52	scene	outdoor	1	0.6302003429882461
286.4970427869994	1	learning	violation	4	A	2	scene	indoor	1	0.5751569900021423
289.4970021680056	1	learning	violation	4	B	2	scene	indoor	1	0.4732874210021691
292.4969664750097	1	learning	violation	2	A	7	scene	outdoor	1	0.5963188649911899
295.4969228429982	1	learning	violation	2	B	7	scene	outdoor	1	0.5483698669995647
298.49688225900167	1	learning	nonviolation	4	A	53	scene	indoor	1	0.5303987730003428
301.49684165000514	1	learning	nonviolation	4	B	53	scene	indoor	1	0.5584180820005713
304.4968014440092	1	restudy	violation	5	B	1	scene	outdoor	1	1.1104890989954583
307.49676088900014	1	learning	violation	2	A	8	scene	outdoor	1	0.7085049940069439
310.49672029200883	1	learning	violation	2	B	8	scene	indoor	1	0.5665660709928488
313.49667960000806	1	restudy	nonviolation	6	B	49	scene	outdoor	1	0.6756117559998529
316.4966459060088	1	violation	violation	5	A	2	scene	indoor	1	0.8566628019907512
319.4965984620066	1	violation	violation	1	X	2	face	female	1	0.8666937849920942
322.4965580330026	1	learning	violation	4	A	4	scene	indoor	1	0.8677287949976744
325.49651754600933	1	learning	violation	4	B	4	scene	indoor	1	0.4987781749950954
328.4964767330093	1	learning	violation	4	A	3	scene	indoor	1	0.6058142359979684
331.496436595	1	learning	violation	4	B	3	scene	outdoor	1	0.4587790810037404
334.49639575299807	1	learning	nonviolation	2	A	54	scene	outdoor	1	0.8078128010092769
337.4963588899991	1	learning	nonviolation	2	B	54	scene	indoor	1	0.7479269010073041
340.4963149499963	1	restudy	nonviolation	5	B	51	scene	outdoor	1	0.5739720330020646
343.4962741850032	1	violation	violation	6	A	1	scene	indoor	1	0.6770143030007603
346.49623295100173	1	violation	violation	1	Y	1	face	male	1	0.7130830719979713
349.4961940089998	1	restudy	violation	5	B	2	scene	indoor	1	0.5420965719968079
352.4961515670002	1	learning	violation	3	A	6	scene	outdoor	1	0.97713716099679
355.49611162900686	1	learning	violation	3	B	6	scene	indoor	1	0.5821779029938625
358.4960704480036	1	learning	violation	4	A	5	scene	outdoor	1	0.5402237200032687
361.49602846799826	1	learning	violation	4	B	5	scene	outdoor	1	0.7812633670109791
364.4959892339975	1	learning	violation	3	A	8	scene	outdoor	1	0.5563125050102826
367.4959490409965	1	learning	violation	3	B	8	scene	indoor	1	0.617369547006092
370.4959079700057	1	learning	violation	3	A	7	scene	outdoor	1	0.4553907529916614
373.4958686419996	1	learning	violation	3	B	7	scene	outdoor	1	0.507507426009397
376.4958264809975	1	learning	nonviolation	2	A	55	scene	outdoor	1	0.5874726360052591
379.49578648000903	1	learning	nonviolation	2	B	55	scene	indoor	1	0.5615259609912755
382.4957451520022	1	violation	violation	5	A	5	scene	outdoor	1	0.4914795240038074
385.4957056300045	1	violation	violation	1	X	5	face	male	1	0.6095970809983555
388.49566216299723	1	learning	violation	4	A	6	scene	outdoor	1	0.6196366440126441
391.4956256190053	1	learning	violation	4	B	6	scene	indoor	1	0.5846749289921718
394.4955828640086	1	restudy	nonviolation	6	B	51	scene	outdoor	1	0.5286440349882469
397.4788751620072	1	violation	violation	5	A	3	scene	indoor	1	0.5724291660008021
400.4788317890052	1	violation	violation	1	X	3	face	male	1	0.6824632420029957
403.47879081100115	1	restudy	nonviolation	5	B	53	scene	indoor	1	0.5475052270048764
406.49541807800415	1	learning	violation	4	A	8	scene	outdoor	1	0.7928800060035428
409.47871104000666	1	learning	violation	4	B	8	scene	indoor	1	0.7185984230018221
412.4786693360074	1	violation	violation	6	A	2	scene	indoor	1	0.8797087739949347
415.4786296780077	1	violation	violation	1	Y	2	face	female	1	0.5611576379887993
418.4785907559999	1	restudy	violation	6	B	1	scene	outdoor	1	0.5875731779960915
421.4785498080018	1	violation	violation	5	A	6	scene	outdoor	1	0.5737465020065429
424.4785072539962	1	violation	violation	1	X	6	face	female	1	0.4408012330095517
427.47846686700365	1	restudy	nonviolation	6	B	53	scene	indoor	1	0.5928330739989178
430.4784282830078	1	violation	violation	5	A	4	scene	indoor	1	0.5558798689889954
433.4783889060054	1	violation	violation	1	X	4	face	female	1	0.4509144780022325
436.47834400599817	1	learning	nonviolation	2	A	56	scene	outdoor	1	0.5609553980029887
439.47830532200175	1	learning	nonviolation	2	B	56	scene	outdoor	1	0.6629942290019244
442.47826479999634	1	learning	nonviolation	3	A	54	scene	outdoor	1	0.4980372120044194
445.4782238720072	1	learning	nonviolation	3	B	54	scene	indoor	0	0.6530908540007658
448.4781814360031	1	learning	nonviolation	3	A	55	scene	outdoor	1	0.4261264619999565
451.47814073599886	1	learning	nonviolation	3	B	55	scene	indoor	1	0.4391646540025249
454.47810215700883	1	learning	nonviolation	3	A	56	scene	outdoor	1	0.4652853229927132
457.4780591129966	1	learning	nonviolation	3	B	56	scene	outdoor	1	0.4723323250073008
460.4780204240087	1	learning	nonviolation	4	A	54	scene	outdoor	1	0.5043547279929044
463.47797951899696	1	learning	nonviolation	4	B	54	scene	indoor	1	0.5532331600115867
466.4779361270048	1	restudy	violation	5	B	3	scene	outdoor	1	0.49437195599603007
469.47789824000216	1	violation	violation	5	A	8	scene	outdoor	1	0.44241156699717976
472.4778572220093	1	violation	violation	1	X	8	face	female	1	0.5544524739962071
475.4778164239978	1	restudy	violation	6	B	2	scene	indoor	1	0.600495161008439
478.4777757920092	1	learning	violation	4	A	7	scene	outdoor	1	0.536528817989165
481.47773483200586	1	learning	violation	4	B	7	scene	outdoor	1	0.5265837679908145
484.47769126199995	1	restudy	violation	5	B	6	scene	indoor	1	0.5576147899992066
487.4776530920062	1	restudy	violation	5	B	5	scene	outdoor	1	0.5516639639972709
490.47761225899734	1	learning	nonviolation	4	A	55	scene	outdoor	1	0.4496966380102094
493.4775714090065	1	learning	nonviolation	4	B	55	scene	indoor	1	0.5797377979906742
496.47753109000035	1	learning	nonviolation	4	A	56	scene	outdoor	1	0.5517772489984054
499.4774896210001	1	learning	nonviolation	4	B	56	scene	outdoor	1	0.4968340659979731
502.47744872100884	1	violation	violation	6	A	3	scene	indoor	1	0.6328734369890299
505.47740611400513	1	violation	violation	1	Y	3	face	male	1	0.6969019529933576
508.47736530400283	1	restudy	nonviolation	5	B	54	scene	indoor	1	0.6419483880017651
511.47732642400666	1	restudy	nonviolation	5	B	56	scene	outdoor	1	0.5009302589896834
514.4772834180038	1	violation	violation	5	A	7	scene	outdoor	1	0.5340275250055129
517.4772410169971	1	violation	violation	1	X	7	face	male	1	0.5500741760042729
520.4772038240044	1	restudy	violation	5	B	8	scene	indoor	1	0.6401112930034287
523.4771627709997	1	restudy	nonviolation	6	B	54	scene	indoor	1	0.8580147150059929
526.4771216020017	1	restudy	violation	5	B	7	scene	outdoor	1	0.5651991360064129
529.4770810500049	1	restudy	violation	5	B	4	scene	indoor	1	0.6902411460032454
532.4770400999987	1	violation	violation	6	A	6	scene	outdoor	1	0.7232840110082179
535.476999313003	1	violation	violation	1	Y	6	face	female	1	1.1213252739980817
538.4769565629977	1	restudy	nonviolation	5	B	55	scene	indoor	1	0.5012331730104052
541.4769148909982	1	violation	violation	6	A	8	scene	outdoor	1	0.8124037270026747
544.4768768030044	1	violation	violation	1	Y	8	face	female	1	0.5034360849967925
547.4768358000001	1	restudy	nonviolation	6	B	56	scene	outdoor	1	0.5844805359956808
550.4767928320069	1	restudy	violation	6	B	6	scene	indoor	1	0.4315256449917797
553.4767539870081	1	restudy	nonviolation	6	B	55	scene	indoor	1	0.5985647419875022
556.4767130289983	1	violation	violation	6	A	7	scene	outdoor	1	0.5506653230113443
559.4766700559994	1	violation	violation	1	Y	7	face	male	1	0.8276487819966859
562.4766311310086	1	restudy	violation	6	B	8	scene	indoor	1	0.5606329059955897
565.476590485996	1	violation	violation	6	A	4	scene	indoor	1	0.5347256150125759
568.4765496760082	1	violation	violation	1	Y	4	face	female	1	0.4337689019885147
571.4765067410044	1	restudy	violation	6	B	7	scene	outdoor	1	0.5128095370018855
574.4764680009977	1	violation	violation	6	A	5	scene	outdoor	0	0.5688515299989376
577.4764270180021	1	violation	violation	1	Y	5	face	male	1	0.6398914549936308
580.4763900480028	1	restudy	violation	6	B	3	scene	outdoor	1	0.7349294750019908
583.4763427940053	1	restudy	violation	6	B	4	scene	indoor	1	0.6599847869947553
586.4763039640093	1	restudy	violation	6	B	5	scene	outdoor	1	0.4940225219907006
