onset	duration	trial_type	condition	repetition	pairmate	pairID	category	subcategory	response_accuracy	response_time
13.506623018009124	1	prelearning	violation	1	A	13	scene	indoor	1	0.6123702259938
16.506583100999705	1	prelearning	violation	1	B	14	scene	outdoor	1	0.4583139739988837
19.50654693500837	1	prelearning	violation	1	A	9	scene	indoor	1	0.5394316430028994
22.50650344599853	1	prelearning	nonviolation	1	B	64	scene	outdoor	1	0.4904724470106885
25.506468528008558	1	prelearning	violation	1	A	14	scene	indoor	1	0.6485017359955236
28.506424089006032	1	prelearning	violation	1	B	10	scene	outdoor	1	0.5795489739975892
31.506388730005714	1	prelearning	nonviolation	1	A	61	scene	outdoor	1	0.5066064739949071
34.506344394001644	1	prelearning	nonviolation	1	B	57	scene	indoor	1	0.4826551470032428
37.50630264900974	1	prelearning	violation	1	B	12	scene	indoor	1	0.6316755839943653
40.50626435500453	1	prelearning	nonviolation	1	B	62	scene	outdoor	1	0.4907262409979012
43.50622156501049	1	prelearning	nonviolation	1	B	63	scene	indoor	1	0.5847540359973209
46.50618472500355	1	prelearning	violation	1	A	11	scene	indoor	0	0.7247235880058724
49.5061447420012	1	prelearning	nonviolation	1	B	61	scene	outdoor	0	0.6328362869971897
52.506104744010365	1	prelearning	nonviolation	1	A	57	scene	indoor	1	0.4838823079917347
55.506064683999284	1	prelearning	nonviolation	1	B	58	scene	indoor	1	0.7154191870067734
58.506024918999174	1	prelearning	nonviolation	1	B	59	scene	indoor	1	0.4859572450077394
61.505982971008045	1	prelearning	violation	1	B	9	scene	indoor	1	0.5379999779979698
64.50594429700868	1	prelearning	violation	1	B	11	scene	outdoor	1	0.5950598850031383
67.50590849200671	1	prelearning	violation	1	B	15	scene	outdoor	1	0.5530784309958108
70.50586304000171	1	prelearning	nonviolation	1	A	58	scene	indoor	1	0.5881161029974464
73.5058244410029	1	prelearning	nonviolation	1	A	59	scene	outdoor	1	0.6012037379987305
76.50578199399752	1	prelearning	nonviolation	1	A	64	scene	indoor	1	0.5722100010025315
79.50574340199819	1	prelearning	violation	1	A	16	scene	outdoor	1	0.7962473530060379
82.50570175499888	1	prelearning	violation	1	B	13	scene	indoor	1	0.4302120150096016
85.50566308300769	1	prelearning	nonviolation	1	B	60	scene	outdoor	1	0.4923264160024701
88.50562314300623	1	prelearning	violation	1	A	15	scene	outdoor	1	0.580288286000723
91.50558093401196	1	prelearning	violation	1	A	12	scene	outdoor	1	0.6184069139999337
94.50554003199795	1	prelearning	nonviolation	1	A	63	scene	outdoor	1	0.4633816510031466
97.50550235700213	1	prelearning	nonviolation	1	A	62	scene	indoor	1	0.5404862480063457
100.50546166700951	1	prelearning	nonviolation	1	A	60	scene	outdoor	1	0.6525298189953901
103.50542184201186	1	prelearning	violation	1	A	10	scene	outdoor	1	0.6626468499889597
106.50538195201081	1	prelearning	violation	1	B	16	scene	indoor	1	1.0195493229985004
109.50534082400554	1	learning	violation	2	A	9	scene	indoor	1	0.572649174995604
112.50530580100893	1	learning	violation	2	B	9	scene	indoor	1	0.4876831569999922
115.50526570000513	1	learning	nonviolation	2	A	57	scene	indoor	1	0.5868046870018588
118.50522023900706	1	learning	nonviolation	2	B	57	scene	indoor	1	0.5997711050004
121.50517995700649	1	learning	violation	2	A	10	scene	outdoor	1	0.5458203829912236
124.50513960899843	1	learning	violation	2	B	10	scene	outdoor	1	0.5858552230056375
127.505099195012	1	learning	nonviolation	2	A	58	scene	indoor	1	0.5719171059899963
130.5050611589977	1	learning	nonviolation	2	B	58	scene	indoor	1	0.5779342740133872
133.5050157280057	1	learning	nonviolation	2	A	59	scene	outdoor	1	0.4969813729985617
136.50497750200157	1	learning	nonviolation	2	B	59	scene	indoor	1	0.5749332370032789
139.5049372000067	1	learning	violation	2	A	11	scene	indoor	0	0.446061460999772
142.50490503200854	1	learning	violation	2	B	11	scene	outdoor	1	0.4960904819890857
145.50485627500166	1	learning	nonviolation	2	A	60	scene	outdoor	1	0.5071413630066672
148.50481417200353	1	learning	nonviolation	2	B	60	scene	outdoor	1	0.5101752409973415
151.50477533900994	1	learning	nonviolation	2	A	61	scene	outdoor	1	0.4742371819884284
154.5047351079993	1	learning	nonviolation	2	B	61	scene	outdoor	1	0.6672589310037438
157.50469433300898	1	learning	violation	3	A	10	scene	outdoor	1	0.5893005669931881
160.50465363101102	1	learning	violation	3	B	10	scene	outdoor	1	0.5423488879896468
163.5046109289979	1	learning	nonviolation	3	A	59	scene	outdoor	1	0.4453917100036051
166.50457246000587	1	learning	nonviolation	3	B	59	scene	indoor	1	0.6754277330037439
169.50453150700199	1	learning	violation	2	A	12	scene	outdoor	1	0.6214676020026673
172.50449092200142	1	learning	violation	2	B	12	scene	indoor	1	0.6074806060059927
175.50445036300513	1	learning	nonviolation	3	A	57	scene	indoor	1	0.8905444510019151
178.50440796899784	1	learning	nonviolation	3	B	57	scene	indoor	1	0.500621127008344
181.5043690790044	1	learning	nonviolation	2	A	62	scene	indoor	1	0.6496376099967165
184.504328119001	1	learning	nonviolation	2	B	62	scene	outdoor	1	0.5716711310087703
187.50428728100087	1	learning	nonviolation	3	A	61	scene	outdoor	0	0.7447198700101579
190.50424681000004	1	learning	nonviolation	3	B	61	scene	outdoor	1	0.5556343740026932
193.5042063860019	1	learning	violation	2	A	13	scene	indoor	1	0.6308003629965242
196.50416478099945	1	learning	violation	2	B	13	scene	indoor	1	0.4828401570121059
199.50412470300216	1	learning	violation	3	A	9	scene	indoor	1	0.4648639360093512
202.50408400299784	1	learning	violation	3	B	9	scene	indoor	1	0.6409125530044548
205.4873736120062	1	learning	nonviolation	3	A	58	scene	indoor	1	0.5881123089930043
208.48733459200596	1	learning	nonviolation	3	B	58	scene	indoor	1	0.5647483840002678
211.4872922880022	1	learning	violation	4	A	10	scene	outdoor	1	0.5947137110051699
214.50392129900862	1	learning	violation	4	B	10	scene	outdoor	1	0.5980834539950592
217.50388026700242	1	learning	nonviolation	4	A	59	scene	outdoor	0	0.4371197770087747
220.50383894301197	1	learning	nonviolation	4	B	59	scene	indoor	1	0.4761655759939458
223.4871304010012	1	learning	nonviolation	3	A	62	scene	indoor	1	0.5317980090039782
226.48709312800202	1	learning	nonviolation	3	B	62	scene	outdoor	1	0.5909022670093691
229.48705186200092	1	learning	violation	3	A	12	scene	outdoor	1	0.6229490240075393
232.48700858101074	1	learning	violation	3	B	12	scene	indoor	1	0.6469964509888086
235.48696720400767	1	learning	violation	2	A	14	scene	indoor	1	0.6860387869965052
238.4869269030023	1	learning	violation	2	B	14	scene	outdoor	1	0.5510830779967364
241.4868846650061	1	learning	violation	3	A	11	scene	indoor	0	0.5051183169998694
244.48684753100682	1	learning	violation	3	B	11	scene	outdoor	1	0.4616569200006779
247.4868067339994	1	restudy	nonviolation	5	B	59	scene	indoor	1	0.8532031630020356
250.486765425012	1	learning	nonviolation	4	A	58	scene	indoor	1	0.5841926439898089
253.4867273350101	1	learning	nonviolation	4	B	58	scene	indoor	1	0.4592604779900285
256.48668236901	1	violation	violation	5	A	10	scene	outdoor	1	0.5153252409945708
259.48664093299885	1	violation	violation	1	X	10	face	male	1	1.0563713100127643
262.48660205800843	1	learning	nonviolation	3	A	60	scene	outdoor	1	0.6484063980024075
265.48656196900987	1	learning	nonviolation	3	B	60	scene	outdoor	1	0.646463967001182
268.48652043999755	1	learning	violation	2	A	15	scene	outdoor	1	0.9674840460065752
271.48647955800703	1	learning	violation	2	B	15	scene	outdoor	1	0.7515299490041798
274.4864385950059	1	learning	nonviolation	4	A	57	scene	indoor	1	0.5785784759937087
277.4863966940029	1	learning	nonviolation	4	B	57	scene	indoor	1	0.4915327360067749
280.4863573410112	1	learning	nonviolation	4	A	61	scene	outdoor	1	0.4766738809994422
283.4863139890076	1	learning	nonviolation	4	B	61	scene	outdoor	1	0.5236921829928178
286.48627303700783	1	restudy	nonviolation	5	B	58	scene	indoor	1	0.5207500989927212
289.4862352670025	1	learning	violation	3	A	14	scene	indoor	1	0.5596973369974876
292.48619344399776	1	learning	violation	3	B	14	scene	outdoor	1	0.4938246000092477
295.4861526169989	1	restudy	nonviolation	5	B	61	scene	outdoor	1	0.4148608140094439
298.4861120800051	1	learning	violation	4	A	9	scene	indoor	1	0.5679029199964134
301.48607060100767	1	learning	violation	4	B	9	scene	indoor	1	0.472937685000943
304.4860277980042	1	learning	violation	3	A	13	scene	indoor	1	0.8189861139981076
307.4859867100022	1	learning	violation	3	B	13	scene	indoor	0	0.9530276650039012
310.48594866201165	1	learning	nonviolation	4	A	60	scene	outdoor	1	0.43206518299120944
313.4859070130042	1	learning	nonviolation	4	B	60	scene	outdoor	1	0.5721043960074894
316.4858659120073	1	learning	violation	2	A	16	scene	outdoor	1	0.5161464889970375
319.4858248060045	1	learning	violation	2	B	16	scene	indoor	1	0.6951988660002826
322.4857841339981	1	restudy	nonviolation	6	B	59	scene	indoor	1	1.0452332720014963
325.48574292100966	1	learning	nonviolation	4	A	62	scene	indoor	1	0.4902774700021837
328.4857000860065	1	learning	nonviolation	4	B	62	scene	outdoor	1	0.5363141690031625
331.4856650550064	1	learning	violation	4	A	11	scene	indoor	0	0.8753528999950504
334.48561662901193	1	learning	violation	4	B	11	scene	outdoor	1	0.5033286189864157
337.4855798610078	1	learning	violation	4	A	12	scene	outdoor	1	0.4844385869946564
340.48553628900845	1	learning	violation	4	B	12	scene	indoor	1	0.5515011800016509
343.4854965240084	1	restudy	nonviolation	5	B	60	scene	outdoor	1	0.6285285579942865
346.4854537750071	1	restudy	nonviolation	5	B	57	scene	indoor	1	0.6195615750038996
349.48541334801115	1	restudy	nonviolation	6	B	61	scene	outdoor	1	0.4736039139970672
352.4853730920004	1	restudy	violation	5	B	10	scene	outdoor	1	0.538642929008347
355.48533056500315	1	violation	violation	5	A	12	scene	outdoor	1	0.4586076039995533
358.48529254700406	1	violation	violation	1	X	12	face	female	1	0.6197345929977018
361.48525036900537	1	learning	violation	3	A	15	scene	outdoor	1	0.5887715290009511
364.4852082010038	1	learning	violation	3	B	15	scene	outdoor	1	0.6208864159998484
367.48516681201005	1	learning	violation	4	A	14	scene	indoor	1	0.577860970995971
370.48512827001116	1	learning	violation	4	B	14	scene	outdoor	1	0.5018147209921153
373.48508526400843	1	violation	violation	5	A	11	scene	indoor	0	0.5970182379969629
376.4850463269977	1	violation	violation	1	X	11	face	male	1	0.6779787370032864
379.48500323400367	1	learning	nonviolation	2	A	63	scene	outdoor	1	0.530016032003914
382.48496503000206	1	learning	nonviolation	2	B	63	scene	indoor	1	0.6240776530030416
385.4849204430066	1	violation	violation	6	A	10	scene	outdoor	1	0.5391107640025439
388.48488092400663	1	violation	violation	1	Y	10	face	male	1	0.6421493499947246
391.4848409030092	1	restudy	nonviolation	6	B	58	scene	indoor	1	0.5901813769887667
394.48479785800737	1	learning	violation	3	A	16	scene	outdoor	1	0.5902314089908032
397.4847591730068	1	learning	violation	3	B	16	scene	indoor	1	0.9182756529917242
400.4847190250002	1	violation	violation	5	A	9	scene	indoor	1	0.624230625006021
403.48467789700953	1	violation	violation	1	X	9	face	female	1	0.4893453219992807
406.48463608200836	1	restudy	nonviolation	5	B	62	scene	outdoor	1	0.5353887770033907
409.48459551201086	1	learning	violation	4	A	13	scene	indoor	1	0.5124345169897424
412.48455221900076	1	learning	violation	4	B	13	scene	indoor	1	0.6664719590044115
415.4845133890049	1	restudy	nonviolation	6	B	57	scene	indoor	1	0.6925248329935129
418.4844726209994	1	learning	violation	4	A	16	scene	outdoor	1	0.4665566370094894
421.4844312350033	1	learning	violation	4	B	16	scene	indoor	1	0.8706691830011549
424.484390231999	1	restudy	violation	6	B	10	scene	outdoor	1	0.6866070120013319
427.48434721201187	1	restudy	nonviolation	6	B	60	scene	outdoor	1	0.5136915799957933
430.48430797300523	1	learning	nonviolation	2	A	64	scene	indoor	1	0.4607546979968902
433.4842687339988	1	learning	nonviolation	2	B	64	scene	outdoor	1	1.0337665950064547
436.4842264980107	1	violation	violation	5	A	13	scene	indoor	1	0.4258028479962377
439.4841852350073	1	violation	violation	1	X	13	face	female	1	0.5988510589959333
442.48414480101195	1	learning	nonviolation	3	A	63	scene	outdoor	1	0.490863459999673
445.48410357700783	1	learning	nonviolation	3	B	63	scene	indoor	1	0.573927471996285
448.4840625689977	1	learning	violation	4	A	15	scene	outdoor	1	0.5959680960077094
451.4840217390009	1	learning	violation	4	B	15	scene	outdoor	1	0.5480117469996912
454.48398042299965	1	restudy	violation	5	B	11	scene	outdoor	1	0.4830570790072671
457.4839396910102	1	restudy	nonviolation	6	B	62	scene	outdoor	1	0.5390970000007655
460.48389856000716	1	restudy	violation	5	B	12	scene	indoor	1	0.5600772280013189
463.483860354012	1	restudy	violation	5	B	9	scene	indoor	1	0.7871718669921393
466.4838173960016	1	violation	violation	5	A	14	scene	indoor	1	0.6792149480024818
469.4837735860056	1	violation	violation	1	X	14	face	male	1	0.8542580929934047
472.4837359790109	1	learning	nonviolation	3	A	64	scene	indoor	1	1.1783355509978721
475.48369355300383	1	learning	nonviolation	3	B	64	scene	outdoor	1	0.4773424370068824
478.48365258300333	1	learning	nonviolation	4	A	63	scene	outdoor	1	0.38938090299780015
481.4836114290083	1	learning	nonviolation	4	B	63	scene	indoor	1	0.6519098689896055
484.4835705190053	1	restudy	violation	5	B	13	scene	indoor	1	0.909465992997866
487.48352814999816	1	violation	violation	6	A	11	scene	indoor	0	0.4824283370107878
490.4834882319992	1	violation	violation	1	Y	11	face	male	1	0.4914666340046097
493.4834456430108	1	violation	violation	5	A	16	scene	outdoor	1	0.4825936239940347
496.4834042740112	1	violation	violation	1	X	16	face	female	1	0.5736397129949182
499.4833642209997	1	learning	nonviolation	4	A	64	scene	indoor	1	0.4846749080024893
502.4833232329984	1	learning	nonviolation	4	B	64	scene	outdoor	1	0.6087219680048293
505.4832831480017	1	violation	violation	6	A	12	scene	outdoor	1	0.5767632839997532
508.48324011400115	1	violation	violation	1	Y	12	face	female	1	0.5038071680028224
511.48320098400285	1	violation	violation	6	A	9	scene	indoor	1	0.6818474229949061
514.4831581110047	1	violation	violation	1	Y	9	face	female	1	0.4368881959962891
517.4831184570066	1	restudy	nonviolation	5	B	64	scene	outdoor	1	0.4929256519972114
520.4830778650066	1	restudy	violation	5	B	16	scene	indoor	1	0.5299920629913686
523.4830349770053	1	restudy	nonviolation	5	B	63	scene	indoor	1	0.6880114009982208
526.4829939360061	1	restudy	violation	6	B	11	scene	outdoor	1	0.68804342400108
529.4829550540016	1	restudy	violation	5	B	14	scene	outdoor	1	0.7080104460037546
532.4829118000052	1	violation	violation	5	A	15	scene	outdoor	1	0.4601583869953174
535.4828731529997	1	violation	violation	1	X	15	face	male	1	0.5080880710011115
538.4828320100061	1	violation	violation	6	A	16	scene	outdoor	1	0.4812093139917124
541.4827907610015	1	violation	violation	1	Y	16	face	female	1	0.7832540890085511
544.4827495680073	1	restudy	violation	6	B	9	scene	indoor	1	0.5502728580031544
547.4827086830046	1	restudy	violation	5	B	15	scene	outdoor	1	0.5984121219953522
550.4826648150047	1	restudy	nonviolation	6	B	63	scene	indoor	1	0.5293847849970916
553.4826266290038	1	restudy	violation	6	B	16	scene	indoor	1	0.9054164700064576
556.4825834630028	1	restudy	nonviolation	6	B	64	scene	outdoor	1	0.5144212250015698
559.4825432850048	1	violation	violation	6	A	14	scene	indoor	1	0.5875104290025774
562.4825027930056	1	violation	violation	1	Y	14	face	male	1	0.6085239550011465
565.4824625670008	1	violation	violation	6	A	15	scene	outdoor	1	0.4995884890086018
568.4824213789981	1	violation	violation	1	Y	15	face	male	1	0.5365372150117764
571.4823804410116	1	violation	violation	6	A	13	scene	indoor	1	1.1756666639994364
574.4823392530087	1	violation	violation	1	Y	13	face	female	1	0.4157242340006633
577.4822964330087	1	restudy	violation	6	B	12	scene	indoor	1	0.5517494749947218
580.4822570609978	1	restudy	violation	6	B	15	scene	outdoor	1	0.5187944070057711
583.4822161960037	1	restudy	violation	6	B	14	scene	outdoor	1	0.7348375389992725
586.4821752510034	1	restudy	violation	6	B	13	scene	indoor	1	0.5638818739971612
