onset	duration	trial_type	condition	repetition	pairmate	pairID	category	subcategory	response_accuracy	response_time
13.514285444980487	1	prelearning	violation	1	B	7	scene	indoor	1	0.8738984810188413
16.514242685982026	1	prelearning	violation	1	A	3	scene	indoor	1	0.9390374700305985
19.497520197008267	1	prelearning	violation	1	A	7	scene	outdoor	1	0.6147495440091006
22.497481174999848	1	prelearning	nonviolation	1	B	51	scene	indoor	1	0.9358147999737412
25.497445192013398	1	prelearning	violation	1	B	8	scene	outdoor	1	0.6848284059669822
28.49740525998641	1	prelearning	violation	1	B	3	scene	indoor	1	0.7188566090189852
31.497367164003663	1	prelearning	nonviolation	1	A	55	scene	indoor	1	0.6269093499868177
34.49733191000996	1	prelearning	violation	1	B	4	scene	indoor	1	0.6029314039624296
37.497291279025376	1	prelearning	nonviolation	1	B	54	scene	indoor	1	0.6789799819816835
40.49725609598681	1	prelearning	nonviolation	1	A	53	scene	indoor	1	0.6429315350251272
43.497213826980435	1	prelearning	nonviolation	1	B	55	scene	outdoor	1	0.4780538260238245
46.49717847100692	1	prelearning	violation	1	B	5	scene	outdoor	1	0.5980875319801271
49.497140904015396	1	prelearning	nonviolation	1	B	50	scene	outdoor	1	0.5690632580081001
52.49710564099951	1	prelearning	violation	1	A	1	scene	outdoor	1	0.8191713059786707
55.4970612640027	1	prelearning	nonviolation	1	B	56	scene	outdoor	1	0.635174494003877
58.49702153401449	1	prelearning	violation	1	B	2	scene	outdoor	1	0.7402505190111697
61.496982785	1	prelearning	nonviolation	1	A	51	scene	outdoor	1	0.664286824001465
64.4969507639762	1	prelearning	nonviolation	1	A	54	scene	indoor	1	0.7353204850223847
67.49690219498007	1	prelearning	nonviolation	1	A	49	scene	outdoor	1	0.6053764030220918
70.49686643999303	1	prelearning	nonviolation	1	B	52	scene	outdoor	1	0.932435914000962
73.49682685098378	1	prelearning	nonviolation	1	B	53	scene	indoor	1	0.6854602490202524
76.49678796797525	1	prelearning	violation	1	A	4	scene	outdoor	1	0.6385042520123534
79.49674477596999	1	prelearning	violation	1	B	6	scene	indoor	1	0.7435510800569318
82.49672032298986	1	prelearning	nonviolation	1	A	56	scene	indoor	1	0.6865547330235131
85.49668284598738	1	prelearning	nonviolation	1	B	49	scene	indoor	1	0.6615986760007218
88.49663215398323	1	prelearning	violation	1	B	1	scene	outdoor	1	0.5236475960118696
91.49660618102644	1	prelearning	violation	1	A	6	scene	indoor	1	0.5416747009730898
94.49656435596991	1	prelearning	violation	1	A	5	scene	outdoor	1	0.5316370040527545
97.49652209301712	1	prelearning	nonviolation	1	A	52	scene	outdoor	1	0.6387508260086179
100.49648304696892	1	prelearning	nonviolation	1	A	50	scene	outdoor	1	0.6997846580343321
103.49643963098059	1	prelearning	violation	1	A	8	scene	indoor	1	0.5408454930293374
106.49641623400385	1	prelearning	violation	1	A	2	scene	indoor	1	0.8778833730029874
109.49636268202448	1	learning	nonviolation	2	A	49	scene	outdoor	1	0.44692634599050507
112.4963295420166	1	learning	nonviolation	2	B	49	scene	indoor	1	0.5009479889995418
115.49628843099345	1	learning	nonviolation	2	A	50	scene	outdoor	1	0.8669987479806878
118.49625248298979	1	learning	nonviolation	2	B	50	scene	outdoor	1	0.6000350820249878
121.49619897099909	1	learning	nonviolation	2	A	51	scene	outdoor	1	0.7580800069845282
124.49616595101543	1	learning	nonviolation	2	B	51	scene	indoor	1	0.7331278739729896
127.4961246100138	1	learning	nonviolation	3	A	49	scene	outdoor	1	0.5771511539933272
130.49610620597375	1	learning	nonviolation	3	B	49	scene	indoor	1	0.6461694990284741
133.49605280399558	1	learning	violation	2	A	1	scene	outdoor	1	0.6041454470250756
136.49600748502414	1	learning	violation	2	B	1	scene	outdoor	1	1.1282813139841892
139.49596783798188	1	learning	violation	2	A	2	scene	indoor	1	0.4563251940417104
142.49593084602384	1	learning	violation	2	B	2	scene	outdoor	1	0.4823486639652401
145.4989718759898	1	learning	nonviolation	2	A	52	scene	outdoor	1	0.5163189209997654
148.4958470300189	1	learning	nonviolation	2	B	52	scene	outdoor	1	0.5264314059750177
151.4958216759842	1	learning	violation	2	A	3	scene	indoor	1	0.5794558970374055
154.4957786829909	1	learning	violation	2	B	3	scene	indoor	1	0.6175268990336917
157.49573403596878	1	learning	violation	2	A	4	scene	outdoor	1	0.4715657380293123
160.49569096602502	1	learning	violation	2	B	4	scene	indoor	1	0.6295987679623067
163.49565379699925	1	learning	violation	2	A	5	scene	outdoor	1	0.5676215050043538
166.49562554596926	1	learning	violation	2	B	5	scene	outdoor	1	0.5556550420005806
169.49558246601373	1	learning	nonviolation	2	A	53	scene	indoor	0	1.0337016629637221
172.4955364529742	1	learning	nonviolation	2	B	53	scene	indoor	1	0.6417562870192342
175.49551054200856	1	learning	nonviolation	3	A	51	scene	outdoor	1	0.6247874629916623
178.49546369700693	1	learning	nonviolation	3	B	51	scene	indoor	1	0.4678292699973099
181.4954207569826	1	learning	nonviolation	2	A	54	scene	indoor	1	0.4998617140226997
184.49539033102337	1	learning	nonviolation	2	B	54	scene	indoor	1	0.5678916659671813
187.4953392680036	1	learning	nonviolation	3	A	52	scene	outdoor	1	0.5189706039964221
190.49530819401843	1	learning	nonviolation	3	B	52	scene	outdoor	1	0.4879852559533902
193.49526038899785	1	learning	nonviolation	4	A	51	scene	outdoor	1	0.6430407189764082
196.49522210098806	1	learning	nonviolation	4	B	51	scene	indoor	1	0.4740713640348986
199.49518317601172	1	learning	nonviolation	2	A	55	scene	indoor	0	0.8391199450124986
202.49514541798268	1	learning	nonviolation	2	B	55	scene	outdoor	1	0.7851657730061561
205.49511007702682	1	learning	nonviolation	3	A	54	scene	indoor	1	0.5591807149467058
208.4950741920038	1	learning	nonviolation	3	B	54	scene	indoor	1	0.5752101360121742
211.4950276549789	1	learning	violation	3	A	5	scene	outdoor	1	0.5392786610173061
214.49499705102062	1	learning	violation	3	B	5	scene	outdoor	1	0.7173033260041848
217.4949846189702	1	learning	violation	3	A	2	scene	indoor	1	0.4933069930411875
220.49491446302272	1	learning	violation	3	B	2	scene	outdoor	1	0.6403735269559547
223.49487375898755	1	learning	nonviolation	4	A	52	scene	outdoor	1	0.5854168480145745
226.49483422399499	1	learning	nonviolation	4	B	52	scene	outdoor	1	0.5274545749998651
229.49480412097182	1	learning	nonviolation	4	A	49	scene	outdoor	1	0.5824827449978329
232.49475122598236	1	learning	nonviolation	4	B	49	scene	indoor	1	0.5535343990195543
235.49471084197285	1	learning	nonviolation	3	A	53	scene	indoor	1	0.6855138710234314
238.4946786640212	1	learning	nonviolation	3	B	53	scene	indoor	1	0.6386238379636779
241.4946341949981	1	learning	nonviolation	3	A	50	scene	outdoor	1	0.5536748970043845
244.49459243001183	1	learning	nonviolation	3	B	50	scene	outdoor	1	0.580715499992948
247.4945539680193	1	learning	violation	3	A	4	scene	outdoor	1	0.5487509179511108
250.4945150249987	1	learning	violation	3	B	4	scene	indoor	1	0.6447914119926281
253.49447968101597	1	restudy	nonviolation	5	B	51	scene	indoor	1	0.6098274209653027
256.49443711998174	1	learning	violation	3	A	1	scene	outdoor	1	0.5438648010022007
259.49440175300697	1	learning	violation	3	B	1	scene	outdoor	1	0.8329051919863559
262.4943555369973	1	learning	violation	3	A	3	scene	indoor	1	0.6599370340118185
265.4943149699829	1	learning	violation	3	B	3	scene	indoor	1	0.7429904880118556
268.4942909100209	1	learning	nonviolation	4	A	54	scene	indoor	1	0.7040015389793552
271.4942386639886	1	learning	nonviolation	4	B	54	scene	indoor	1	0.7050655020284466
274.49419612501515	1	learning	violation	4	A	4	scene	outdoor	1	0.6511152570019476
277.49416927201673	1	learning	violation	4	B	4	scene	indoor	1	0.6891362039605156
280.49412459199084	1	learning	violation	4	A	3	scene	indoor	1	0.5751701419940218
283.494080621982	1	learning	violation	4	B	3	scene	indoor	1	0.5422236410086043
286.49403478199383	1	restudy	nonviolation	5	B	52	scene	outdoor	1	0.5702897770097479
289.49399651301786	1	learning	violation	4	A	5	scene	outdoor	1	0.600306432985235
292.4939605660038	1	learning	violation	4	B	5	scene	outdoor	1	0.5643547509680502
295.49392274598364	1	learning	nonviolation	3	A	55	scene	indoor	1	0.96739476401126
298.49388247198664	1	learning	nonviolation	3	B	55	scene	outdoor	1	0.5493551309918985
301.4938455439988	1	learning	nonviolation	4	A	50	scene	outdoor	1	0.6104661090066656
304.4938102230081	1	learning	nonviolation	4	B	50	scene	outdoor	1	0.9694901509792544
307.4937699440052	1	restudy	nonviolation	6	B	52	scene	outdoor	1	0.5705406739725731
310.4937219590065	1	restudy	nonviolation	5	B	49	scene	indoor	1	0.5295863510109484
313.4936866299832	1	learning	violation	2	A	6	scene	indoor	1	0.5236249100416899
316.49364700098516	1	learning	violation	2	B	6	scene	indoor	1	0.5926644040155225
319.4936071150005	1	learning	violation	4	A	2	scene	indoor	1	0.5057143159792759
322.49357846798375	1	learning	violation	4	B	2	scene	outdoor	1	1.3407352190115491
325.49353223497747	1	learning	nonviolation	4	A	53	scene	indoor	1	0.4687856950331479
328.493487698026	1	learning	nonviolation	4	B	53	scene	indoor	1	0.6338221919722855
331.4934442189988	1	restudy	nonviolation	6	B	51	scene	indoor	1	0.6358661900158039
334.4934326270013	1	violation	violation	5	A	4	scene	outdoor	1	0.9138864009873942
337.4933974510059	1	violation	violation	1	X	4	face	female	1	1.0548276070039722
340.4933280100231	1	learning	violation	2	A	7	scene	outdoor	1	0.5589738969574682
343.49329056299763	1	learning	violation	2	B	7	scene	indoor	1	0.6059864669805393
346.49326112197014	1	learning	violation	2	A	8	scene	indoor	1	0.6200447940500453
349.49322549701895	1	learning	violation	2	B	8	scene	outdoor	1	0.6700933459796943
352.49317792500364	1	restudy	nonviolation	5	B	54	scene	indoor	1	0.5461421930231154
355.4931301799952	1	violation	violation	5	A	3	scene	indoor	1	0.8001785480300896
358.4930944329826	1	violation	violation	1	X	3	face	female	1	0.5752107549924403
361.4930535079912	1	learning	violation	4	A	1	scene	outdoor	1	0.6782650600071065
364.49302066297963	1	learning	violation	4	B	1	scene	outdoor	1	0.4963027620106004
367.4929746449925	1	restudy	nonviolation	6	B	54	scene	indoor	1	0.5183530990034342
370.49293271999335	1	learning	nonviolation	4	A	55	scene	indoor	1	1.1774013770045713
373.49289228802076	1	learning	nonviolation	4	B	55	scene	outdoor	1	0.5794180369703099
376.49286221002683	1	restudy	nonviolation	5	B	50	scene	outdoor	1	0.5384483019588515
379.49281492602313	1	violation	violation	5	A	5	scene	outdoor	1	0.5144993689609692
382.4927781869774	1	violation	violation	1	X	5	face	male	1	0.6805310689960606
385.4927376220003	1	violation	violation	5	A	2	scene	indoor	1	0.5525760999880731
388.4927002179902	1	violation	violation	1	X	2	face	male	1	0.5515482490300201
391.4926576560247	1	restudy	violation	5	B	3	scene	indoor	1	1.0336555409594441
394.4926291499869	1	restudy	nonviolation	6	B	49	scene	indoor	1	0.5476529010338709
397.492583608022	1	restudy	nonviolation	5	B	53	scene	indoor	1	0.5297287539578974
400.4925385849783	1	learning	nonviolation	2	A	56	scene	indoor	1	0.6877128219930455
403.49250656901864	1	learning	nonviolation	2	B	56	scene	outdoor	1	0.5868139659869485
406.49245887697913	1	learning	violation	3	A	6	scene	indoor	1	0.6478530290187337
409.4924293099903	1	learning	violation	3	B	6	scene	indoor	1	0.4899084439966828
412.49238857300946	1	learning	violation	3	A	7	scene	outdoor	1	0.5339405469712801
415.49234268302104	1	learning	violation	3	B	7	scene	indoor	1	0.5679697489831597
418.4923080810113	1	restudy	nonviolation	6	B	50	scene	outdoor	1	0.5990061159827746
421.4922616039985	1	restudy	nonviolation	5	B	55	scene	outdoor	1	0.8010632619843818
424.492224481015	1	violation	violation	5	A	1	scene	outdoor	1	0.5350881639751606
427.4921866009827	1	violation	violation	1	X	1	face	male	1	0.6231373029877432
430.4921456029988	1	learning	violation	4	A	7	scene	outdoor	1	0.5591803549905308
433.492132038984	1	learning	violation	4	B	7	scene	indoor	1	0.4991829210193828
436.4920636470197	1	restudy	violation	5	B	4	scene	indoor	1	0.5303004549932666
439.49203423300065	1	restudy	violation	5	B	1	scene	outdoor	1	0.5442308189813048
442.4919871030143	1	learning	violation	3	A	8	scene	indoor	1	0.5623284020111896
445.49195451301057	1	learning	violation	3	B	8	scene	outdoor	1	0.5833794130012393
448.4919105430017	1	restudy	violation	5	B	5	scene	outdoor	1	0.7234106599935329
451.47519345598994	1	learning	violation	4	A	6	scene	indoor	1	0.8441374120302498
454.49184140202124	1	learning	violation	4	B	6	scene	indoor	1	0.7204776009893976
457.47511338000186	1	restudy	violation	5	B	2	scene	outdoor	1	0.5842131350073032
460.49175854399806	1	violation	violation	6	A	5	scene	outdoor	1	0.5945775929722004
463.47503125097137	1	violation	violation	1	Y	5	face	male	1	1.0353007439989597
466.47499460697867	1	learning	nonviolation	3	A	56	scene	indoor	1	0.534323571017012
469.47496453800704	1	learning	nonviolation	3	B	56	scene	outdoor	1	0.8463793930131942
472.474922229012	1	violation	violation	6	A	2	scene	indoor	1	0.6033570709987544
475.4748812559992	1	violation	violation	1	Y	2	face	male	1	0.9224392069736496
478.4748432309716	1	restudy	nonviolation	6	B	53	scene	indoor	1	0.5784772990155034
481.47480250801885	1	learning	nonviolation	4	A	56	scene	indoor	1	0.5795185279566795
484.47477400198113	1	learning	nonviolation	4	B	56	scene	outdoor	1	0.9005551810259931
487.47472075500986	1	violation	violation	6	A	3	scene	indoor	1	0.8166199629777111
490.4746833270183	1	violation	violation	1	Y	3	face	female	1	0.6996506949653849
493.4746500530164	1	restudy	nonviolation	6	B	55	scene	outdoor	1	0.5356909639667721
496.47460628597764	1	violation	violation	6	A	1	scene	outdoor	1	0.5467285670456477
499.4745647240197	1	violation	violation	1	Y	1	face	male	1	0.7317730279755779
502.47453203902114	1	violation	violation	5	A	7	scene	outdoor	1	1.1167472189990804
505.47448633902235	1	violation	violation	1	X	7	face	female	1	0.5748563599772751
508.47444535698736	1	learning	violation	4	A	8	scene	indoor	1	0.5898964499938302
511.4744182460127	1	learning	violation	4	B	8	scene	outdoor	1	0.5589205779833719
514.4743713579956	1	restudy	violation	6	B	1	scene	outdoor	1	0.6459683200228028
517.4743380849832	1	restudy	nonviolation	5	B	56	scene	outdoor	1	0.6639852600055747
520.474296231987	1	violation	violation	5	A	8	scene	indoor	1	0.7120415270328522
523.4742544370239	1	violation	violation	1	X	8	face	male	1	0.6040833659935743
526.4742139430018	1	violation	violation	6	A	4	scene	outdoor	1	1.0781216350151226
529.4741739269812	1	violation	violation	1	Y	4	face	female	1	0.4711607620120049
532.4741336959996	1	restudy	violation	6	B	2	scene	outdoor	1	0.5191958299838006
535.4740956909955	1	restudy	violation	5	B	7	scene	indoor	1	0.8782313690171577
538.474054499995	1	restudy	violation	6	B	3	scene	indoor	1	0.6403111739782616
541.474016667984	1	restudy	nonviolation	6	B	56	scene	outdoor	1	0.5153116679866798
544.4739842609852	1	violation	violation	5	A	6	scene	indoor	1	0.4823609560262412
547.4739348299919	1	violation	violation	1	X	6	face	female	1	1.2104161279858092
550.473898886994	1	restudy	violation	6	B	5	scene	outdoor	1	0.5354448260040954
553.4738590790075	1	restudy	violation	5	B	8	scene	outdoor	1	0.5544844230171293
556.4738275699783	1	restudy	violation	6	B	4	scene	indoor	1	0.5435170769924298
559.4737832309911	1	restudy	violation	5	B	6	scene	indoor	1	0.552552059001755
562.4737372939708	1	violation	violation	6	A	8	scene	indoor	1	0.9365936390240676
565.4737005159841	1	violation	violation	1	Y	8	face	male	1	0.6786426350008696
568.4736563329934	1	violation	violation	6	A	7	scene	outdoor	1	0.6756754679954611
571.4736211589769	1	violation	violation	1	Y	7	face	female	1	0.585717560024932
574.4735961189726	1	violation	violation	6	A	6	scene	indoor	1	0.5827009690110572
577.4735463309918	1	violation	violation	1	Y	6	face	female	1	0.722712955030147
580.4735073660268	1	restudy	violation	6	B	8	scene	outdoor	1	0.6708415749599226
583.4734685809817	1	restudy	violation	6	B	7	scene	indoor	1	0.6498857600381598
586.4734287789906	1	restudy	violation	6	B	6	scene	indoor	1	1.110926194000058
