onset	duration	trial_type	condition	repetition	pairmate	pairID	category	subcategory	response_accuracy	response_time
13.499359550012741	1	prelearning	nonviolation	1	A	93	scene	outdoor	1	0.6699061759863979
16.49931641999865	1	prelearning	violation	1	A	46	scene	indoor	1	0.5889351009973325
19.499288589984644	1	prelearning	nonviolation	1	A	96	scene	outdoor	1	0.8459708330337891
22.499236248026136	1	prelearning	nonviolation	1	A	95	scene	outdoor	0	0.5690062979701906
25.499200040008873	1	prelearning	violation	1	A	47	scene	indoor	1	0.6710516039747745
28.49917217501207	1	prelearning	nonviolation	1	A	89	scene	indoor	0	0.4659922280116007
31.4991184680257	1	prelearning	nonviolation	1	A	91	scene	outdoor	1	0.5331381899886765
34.49908482300816	1	prelearning	violation	1	A	48	scene	outdoor	1	1.0571609769831412
37.49904030899052	1	prelearning	violation	1	B	44	scene	outdoor	1	0.623214902007021
40.49902026099153	1	prelearning	violation	1	B	48	scene	outdoor	1	0.496227330993861
43.49896952300333	1	prelearning	nonviolation	1	A	90	scene	indoor	1	0.4963110379758291
46.498944819031756	1	prelearning	violation	1	A	43	scene	outdoor	1	0.490310741995927
49.498888628033455	1	prelearning	violation	1	B	47	scene	outdoor	1	0.7353665589471348
52.49885917903157	1	prelearning	nonviolation	1	B	90	scene	outdoor	1	0.5143117149709724
55.49882059899392	1	prelearning	violation	1	B	46	scene	indoor	1	0.7844396790023893
58.49877639801707	1	prelearning	nonviolation	1	B	89	scene	indoor	1	0.8384872740134597
61.49873505701544	1	prelearning	nonviolation	1	B	94	scene	indoor	1	0.5445228670141661
64.49870021501556	1	prelearning	violation	1	B	41	scene	indoor	1	0.9685607919818722
67.49866054201266	1	prelearning	nonviolation	1	B	95	scene	indoor	1	0.653596039977856
70.49862881499574	1	prelearning	violation	1	A	45	scene	indoor	1	0.5046275460044853
73.49857796501601	1	prelearning	violation	1	A	44	scene	indoor	1	0.5476829209947027
76.49854211800265	1	prelearning	violation	1	A	41	scene	outdoor	1	0.5557186600053683
79.49850932502886	1	prelearning	nonviolation	1	B	93	scene	indoor	1	0.5546657560043968
82.49846074602101	1	prelearning	nonviolation	1	A	92	scene	indoor	1	0.6538117409800179
85.49843512900406	1	prelearning	nonviolation	1	B	96	scene	outdoor	1	0.5528122740215622
88.49839177000105	1	prelearning	nonviolation	1	A	94	scene	indoor	1	0.6578584790113382
91.49835499498295	1	prelearning	violation	1	B	42	scene	outdoor	1	0.5619025000487454
94.49832378898282	1	prelearning	nonviolation	1	B	92	scene	outdoor	1	0.5159346930449829
97.49828068102943	1	prelearning	violation	1	B	43	scene	indoor	0	0.5849875209969468
100.49823506898248	1	prelearning	nonviolation	1	B	91	scene	outdoor	1	1.1250344050349668
103.49819508899236	1	prelearning	violation	1	A	42	scene	outdoor	1	0.6350835550110787
106.49815049400786	1	prelearning	violation	1	B	45	scene	indoor	1	0.80511169397505
109.49811102799141	1	learning	nonviolation	2	A	89	scene	indoor	0	0.8131432250374928
112.49807244801195	1	learning	nonviolation	2	B	89	scene	indoor	1	0.5711802539881319
115.49803345801773	1	learning	nonviolation	2	A	90	scene	indoor	1	0.5752339239697903
118.49799343699124	1	learning	nonviolation	2	B	90	scene	outdoor	1	0.4562596190371551
121.49795959203037	1	learning	nonviolation	2	A	91	scene	outdoor	1	1.048304098949302
124.4979223710252	1	learning	nonviolation	2	B	91	scene	outdoor	1	0.7623405909980647
127.49787373200523	1	learning	violation	2	A	41	scene	outdoor	1	0.5463808550266549
130.49784248601645	1	learning	violation	2	B	41	scene	indoor	1	0.6184224699973129
133.49780208198354	1	learning	nonviolation	3	A	90	scene	indoor	1	0.5554625550284982
136.49775580799906	1	learning	nonviolation	3	B	90	scene	outdoor	1	0.4505104360287078
139.49771392799448	1	learning	violation	2	A	42	scene	outdoor	1	0.5645535769872367
142.4976769200293	1	learning	violation	2	B	42	scene	outdoor	1	0.9635967819485812
145.4976448090165	1	learning	violation	3	A	41	scene	outdoor	1	0.5536503539769909
148.497594601009	1	learning	violation	3	B	41	scene	indoor	1	0.7166628969716841
151.4975639890181	1	learning	violation	2	A	43	scene	outdoor	1	0.5047102959943004
154.49752097798046	1	learning	violation	2	B	43	scene	indoor	1	0.6327557240147144
157.49747912603198	1	learning	violation	2	A	44	scene	indoor	1	0.5808081739814952
160.49744077998912	1	learning	violation	2	B	44	scene	outdoor	1	0.7408389780321158
163.49740900000324	1	learning	nonviolation	4	A	90	scene	indoor	1	0.5648540999973193
166.49737187102437	1	learning	nonviolation	4	B	90	scene	outdoor	1	0.5839088999782689
169.49732739198953	1	learning	nonviolation	3	A	91	scene	outdoor	1	1.0429433910176158
172.49728265800513	1	learning	nonviolation	3	B	91	scene	outdoor	1	0.4959975659730844
175.49724911799424	1	learning	violation	2	A	45	scene	indoor	1	0.4720215490087867
178.49720220803283	1	learning	violation	2	B	45	scene	indoor	1	0.5510383709915914
181.49716347100915	1	learning	violation	3	A	44	scene	indoor	1	0.7761003240011632
184.49712347000602	1	learning	violation	3	B	44	scene	outdoor	1	0.6371438559726812
187.4970847980003	1	learning	violation	4	A	41	scene	outdoor	1	0.4871907890192233
190.4970432710252	1	learning	violation	4	B	41	scene	indoor	1	0.5772305029677227
193.4970112310257	1	learning	nonviolation	2	A	92	scene	indoor	1	0.5512538049952127
196.49697054398712	1	learning	nonviolation	2	B	92	scene	outdoor	1	0.5122938459971921
199.49693105998452	1	learning	nonviolation	3	A	89	scene	indoor	0	0.5703390060225502
202.4968838409986	1	learning	nonviolation	3	B	89	scene	indoor	1	0.7623978490009904
205.49684533401162	1	learning	violation	3	A	45	scene	indoor	1	0.5394390160217881
208.49680237902797	1	learning	violation	3	B	45	scene	indoor	1	0.526471747958567
211.49676599499068	1	learning	violation	3	A	43	scene	outdoor	1	0.6464561840402894
214.49672633101002	1	learning	violation	3	B	43	scene	indoor	1	0.6884874459938146
217.49669765098955	1	learning	violation	2	A	46	scene	indoor	1	0.5695693520247005
220.49664700601718	1	learning	violation	2	B	46	scene	indoor	1	0.6976186549873091
223.4966121190228	1	learning	violation	2	A	47	scene	indoor	1	0.7516550489817746
226.49657535401641	1	learning	violation	2	B	47	scene	outdoor	1	0.5487016990082338
229.4965272329864	1	restudy	nonviolation	5	B	90	scene	outdoor	1	0.4847082880442031
232.49648560403148	1	learning	violation	3	A	42	scene	outdoor	1	0.5567840659641661
235.49646887899144	1	learning	violation	3	B	42	scene	outdoor	1	0.5508171140099876
238.49641031201463	1	violation	violation	5	A	41	scene	outdoor	1	0.5928648369736038
241.4963742570253	1	violation	violation	1	X	41	face	female	1	0.6549050220055506
244.49633298802655	1	learning	nonviolation	4	A	91	scene	outdoor	1	0.511952114989981
247.4962863510009	1	learning	nonviolation	4	B	91	scene	outdoor	1	0.8569931670208462
250.49624748103088	1	learning	violation	4	A	44	scene	indoor	1	0.5080405749613419
253.49620762100682	1	learning	violation	4	B	44	scene	outdoor	1	1.2290669059730135
256.4961727479822	1	learning	violation	3	A	47	scene	indoor	1	0.4901112200459466
259.4961365250056	1	learning	violation	3	B	47	scene	outdoor	1	0.4751475310185924
262.4960856770049	1	learning	violation	4	A	42	scene	outdoor	0	0.4972042739973404
265.496049022011	1	learning	violation	4	B	42	scene	outdoor	1	0.4891502439859323
268.49600749299856	1	learning	nonviolation	2	A	93	scene	outdoor	1	0.5102954350295477
271.49596749001654	1	learning	nonviolation	2	B	93	scene	indoor	1	0.5843243770068511
274.495927557	1	learning	violation	3	A	46	scene	indoor	1	0.5453749910229817
277.49588945403235	1	learning	violation	3	B	46	scene	indoor	1	0.5993781249853782
280.4958490530262	1	restudy	violation	5	B	41	scene	indoor	1	0.4914320060051978
283.49581028998364	1	learning	violation	4	A	43	scene	outdoor	1	0.4704640620038845
286.49576995702233	1	learning	violation	4	B	43	scene	indoor	1	0.4905217649647966
289.49572812399134	1	violation	violation	5	A	44	scene	indoor	1	0.3995645020040683
292.4956895720097	1	violation	violation	1	X	44	face	male	1	0.5275966229964979
295.49564804602414	1	learning	nonviolation	3	A	92	scene	indoor	n/a	n/a
298.49560539401136	1	learning	nonviolation	3	B	92	scene	outdoor	1	0.5616704529966228
301.4955747720087	1	learning	violation	4	A	45	scene	indoor	1	0.5477004789863713
304.4955319269793	1	learning	violation	4	B	45	scene	indoor	1	0.6547639700002037
307.495495938987	1	learning	violation	4	A	46	scene	indoor	0	0.6057911810348742
310.4954455419793	1	learning	violation	4	B	46	scene	indoor	1	0.5488459050538951
313.4954148299876	1	learning	nonviolation	3	A	93	scene	outdoor	1	0.5808713530423121
316.4953756009927	1	learning	nonviolation	3	B	93	scene	indoor	1	0.7349031239864416
319.49532666598685	1	learning	nonviolation	4	A	89	scene	indoor	0	0.7919619530439377
322.4952961750096	1	learning	nonviolation	4	B	89	scene	indoor	1	0.516984584974125
325.4952496199985	1	violation	violation	5	A	42	scene	outdoor	1	0.5180458149989136
328.4952067430131	1	violation	violation	1	X	42	face	male	1	0.752094493014738
331.49516628100537	1	learning	nonviolation	4	A	92	scene	indoor	1	0.6041235000011511
334.49512555601535	1	learning	nonviolation	4	B	92	scene	outdoor	1	0.4492055890150368
337.4950889390311	1	learning	violation	4	A	47	scene	indoor	1	0.5182089809677564
340.495055574982	1	learning	violation	4	B	47	scene	outdoor	1	0.5602319580502808
343.4950206329813	1	restudy	nonviolation	5	B	89	scene	indoor	1	0.5172030850080773
346.4949756350252	1	restudy	nonviolation	6	B	90	scene	outdoor	1	0.7173237449605949
349.4949296870036	1	restudy	violation	5	B	44	scene	outdoor	1	0.6363570120302029
352.49488961399766	1	restudy	violation	5	B	42	scene	outdoor	1	0.5134008270106278
355.49485575099243	1	restudy	nonviolation	5	B	91	scene	outdoor	0	0.8314429169986397
358.4948132269783	1	violation	violation	5	A	43	scene	outdoor	1	0.6354756080545485
361.4947653770214	1	violation	violation	1	X	43	face	female	1	0.7535330280079506
364.49472872703336	1	violation	violation	5	A	45	scene	indoor	1	0.5455757339950651
367.49468892201554	1	violation	violation	1	X	45	face	female	1	0.5025953639997169
370.49464874400286	1	restudy	nonviolation	6	B	89	scene	indoor	1	0.6886443889816292
373.4946116030332	1	violation	violation	6	A	44	scene	indoor	1	0.5786898659425788
376.49458934698487	1	violation	violation	1	Y	44	face	male	1	0.5627030670293607
379.4778520039981	1	restudy	nonviolation	6	B	91	scene	outdoor	1	0.4854515439947136
382.49448388803285	1	violation	violation	6	A	41	scene	outdoor	1	0.5808196049765684
385.4777690559858	1	violation	violation	1	Y	41	face	female	1	0.8605317770270631
388.49441148602637	1	restudy	nonviolation	5	B	92	scene	outdoor	1	0.5418766219518147
391.49439774802886	1	restudy	violation	6	B	44	scene	outdoor	1	0.667888416966889
394.4776479679858	1	restudy	violation	5	B	43	scene	indoor	1	0.5766652770107612
397.4776111359824	1	violation	violation	5	A	46	scene	indoor	1	0.5176786970114335
400.47757016401744	1	violation	violation	1	X	46	face	female	1	0.4947200670139864
403.47753222298337	1	restudy	violation	6	B	41	scene	indoor	1	0.8457727020140737
406.47748951002717	1	learning	nonviolation	4	A	93	scene	outdoor	1	0.9028110909857788
409.47744755400345	1	learning	nonviolation	4	B	93	scene	indoor	1	0.8978437060141005
412.47741287498496	1	learning	violation	2	A	48	scene	outdoor	1	0.7548909730394371
415.4773794119829	1	learning	violation	2	B	48	scene	outdoor	1	0.6619223390007392
418.47733841399895	1	violation	violation	5	A	47	scene	indoor	1	0.4939532729913481
421.47729627799714	1	violation	violation	1	X	47	face	male	1	0.6149956110166386
424.47725538298255	1	violation	violation	6	A	42	scene	outdoor	1	0.6371384340454824
427.47721017600264	1	violation	violation	1	Y	42	face	male	1	0.5380999949993566
430.4771766979829	1	restudy	nonviolation	5	B	93	scene	indoor	1	0.4811161410179921
433.47713810100686	1	learning	nonviolation	2	A	94	scene	indoor	1	0.5551658400218002
436.47709700302215	1	learning	nonviolation	2	B	94	scene	indoor	1	0.7542114719981328
439.4770879819989	1	restudy	violation	5	B	45	scene	indoor	1	0.5902045660186559
442.4770164660295	1	violation	violation	6	A	43	scene	outdoor	1	0.6072938519646414
445.4769788039848	1	violation	violation	1	Y	43	face	female	1	0.6793322300072759
448.47693757299567	1	learning	nonviolation	2	A	95	scene	outdoor	1	0.7123559230240062
451.4768972310121	1	learning	nonviolation	2	B	95	scene	indoor	1	0.5843977589975111
454.4768564660335	1	violation	violation	6	A	45	scene	indoor	1	0.5904648489668034
457.4768173809862	1	violation	violation	1	Y	45	face	female	1	0.5034795120009221
460.47677661100164	1	restudy	nonviolation	6	B	92	scene	outdoor	1	0.5675205949810334
463.4767385799787	1	learning	nonviolation	2	A	96	scene	outdoor	1	0.5705611220328137
466.4766977149993	1	learning	nonviolation	2	B	96	scene	outdoor	1	0.5086096199811436
469.4766557629919	1	restudy	violation	5	B	46	scene	indoor	1	0.5956569479894824
472.47661730297835	1	restudy	violation	6	B	43	scene	indoor	1	0.5156921050511301
475.4765836609877	1	learning	nonviolation	3	A	96	scene	outdoor	1	0.7957351030199789
478.47653735498903	1	learning	nonviolation	3	B	96	scene	outdoor	1	0.5927761010243557
481.4764990740223	1	violation	violation	6	A	46	scene	indoor	1	0.5138007589848712
484.4764604819938	1	violation	violation	1	Y	46	face	female	1	0.5178678620141
487.47642057202756	1	learning	nonviolation	3	A	95	scene	outdoor	n/a	n/a
490.47637818101794	1	learning	nonviolation	3	B	95	scene	indoor	1	0.6149426439660601
493.47634177398874	1	learning	nonviolation	4	A	96	scene	outdoor	1	0.4359746050322428
496.47629826999037	1	learning	nonviolation	4	B	96	scene	outdoor	1	0.7270131899858825
499.47625891101785	1	restudy	violation	5	B	47	scene	outdoor	1	0.5560428799944929
502.4762182970298	1	learning	violation	3	A	48	scene	outdoor	1	0.5710870079929009
505.47617771499785	1	learning	violation	3	B	48	scene	outdoor	1	0.9021460780058989
508.47614035301376	1	restudy	nonviolation	5	B	96	scene	outdoor	1	0.5681779229780659
511.47609967098106	1	restudy	violation	6	B	42	scene	outdoor	1	0.514205685001798
514.4760590420337	1	learning	nonviolation	4	A	95	scene	outdoor	1	0.49727828998584295
517.476023063995	1	learning	nonviolation	4	B	95	scene	indoor	1	0.4832205889979378
520.4759784420021	1	learning	nonviolation	3	A	94	scene	indoor	1	0.4852993980166502
523.4759391879779	1	learning	nonviolation	3	B	94	scene	indoor	1	0.6533751400420442
526.4759041930083	1	learning	violation	4	A	48	scene	outdoor	1	0.5354101450066082
529.4758632580051	1	learning	violation	4	B	48	scene	outdoor	0	0.5114523689844646
532.4758272320032	1	restudy	nonviolation	6	B	93	scene	indoor	1	0.4674918290111236
535.4757857230143	1	learning	nonviolation	4	A	94	scene	indoor	1	0.5175244539859705
538.4757446619915	1	learning	nonviolation	4	B	94	scene	indoor	1	0.6055807330412789
541.4757030030014	1	restudy	violation	6	B	45	scene	indoor	1	0.521604304027278
544.4756680600112	1	violation	violation	5	A	48	scene	outdoor	1	0.6436576459673233
547.4756258259877	1	violation	violation	1	X	48	face	male	1	0.5756946740439162
550.4755917810253	1	restudy	nonviolation	5	B	94	scene	indoor	1	0.4757334169698879
553.4755651809974	1	restudy	nonviolation	5	B	95	scene	indoor	1	0.5767433010041714
556.4755020510056	1	violation	violation	6	A	47	scene	indoor	1	0.4928061999962665
559.4754719519988	1	violation	violation	1	Y	47	face	male	1	0.5198347080149688
562.4754354280303	1	restudy	violation	5	B	48	scene	outdoor	1	0.6698840329772793
565.4753824030048	1	restudy	violation	6	B	46	scene	indoor	1	0.6179413510253653
568.4753459590138	1	restudy	violation	6	B	47	scene	outdoor	1	0.692979870014824
571.475306665001	1	violation	violation	6	A	48	scene	outdoor	1	0.5400414140312932
574.4752743139978	1	violation	violation	1	Y	48	face	male	1	0.4960758439847268
577.4752246990101	1	restudy	nonviolation	6	B	94	scene	indoor	1	0.5550946739967912
580.4751850520262	1	restudy	nonviolation	6	B	96	scene	outdoor	1	1.0571271890075875
583.4751462370041	1	restudy	nonviolation	6	B	95	scene	indoor	1	0.5211813059868291
586.4751131469966	1	restudy	violation	6	B	48	scene	outdoor	1	0.5342157810227945
