onset	duration	trial_type	subcategory	response_accuracy	response_time
13.504581069108099	0.5	scene	outdoor	1	0.5721431919373572
15.004548538010567	0.5	scene	indoor	1	0.5521766077727079
16.50454264320433	0.5	scene	outdoor	1	0.490179477725178
18.00452538812533	0.5	scene	indoor	1	0.9281998076476157
19.504499881062657	0.5	scene	indoor	1	0.5132217239588499
21.00448621995747	0.5	scene	outdoor	1	0.48423996614292264
22.504462637007236	0.5	scene	indoor	1	0.672226179856807
24.004437535069883	0.5	scene	outdoor	1	0.5522005967795849
25.50441987486556	0.5	scene	indoor	1	0.9783020969480276
27.004397810902447	0.5	scene	outdoor	1	0.8533239508979023
43.50418400019407	0.5	object	natural	1	0.6245441236533225
45.00415955996141	0.5	object	manmade	1	0.45055586425587535
46.506717891898006	0.5	object	manmade	1	0.48200792307034135
48.00411913590506	0.5	object	manmade	1	0.6245728749781847
49.5041025551036	0.5	object	manmade	1	0.5286326301284134
51.00407848088071	0.5	object	natural	0	0.5276318229734898
52.50405814917758	0.5	object	natural	1	0.7456736057065427
54.00404227990657	0.5	object	natural	1	0.5736841610632837
55.50402469187975	0.5	object	natural	1	0.5267063551582396
57.004002237226814	0.5	object	manmade	1	0.6356556275859475
73.5037864940241	0.5	object	natural	1	0.6209404300898314
75.00376637512818	0.5	object	manmade	1	0.5368804819881916
76.5044360877946	0.5	object	manmade	1	0.5992954443208873
78.00372904911637	0.5	object	natural	1	0.5199168217368424
79.50370363378897	0.5	object	manmade	1	0.6150227533653378
81.0036830729805	0.5	object	manmade	1	0.5190802090801299
82.50366367818788	0.5	object	manmade	1	0.560082258656621
84.0036386041902	0.5	object	natural	1	0.45809707697480917
85.50362707395107	0.5	object	natural	1	0.5791041809134185
87.00360538577661	0.5	object	natural	1	0.4800938470289111
103.50338420411572	0.5	object	manmade	1	0.6262714988552034
105.00337355583906	0.5	object	manmade	1	0.3823600672185421
106.5033527049236	0.5	object	manmade	1	0.4583850521594286
108.00331794889644	0.5	object	natural	1	0.3664131420664489
109.50330621283501	0.5	object	natural	1	0.3943479200825095
111.00333957420662	0.5	object	manmade	1	0.5403934009373188
112.50328640080988	0.5	object	natural	1	0.5124467820860445
114.00323275011033	0.5	object	manmade	1	0.5944189657457173
115.50323642790318	0.5	object	natural	1	0.7614935860037804
117.00319796986878	0.5	object	natural	1	0.5025319173000753
133.50298120221123	0.5	face	male	1	0.52075604069978
135.00296864379197	0.5	face	female	1	0.37477229023352265
136.5029492918402	0.5	face	female	1	0.5297866589389741
138.00293373223394	0.5	face	male	1	0.39679260179400444
139.50290814880282	0.5	face	female	1	0.4908019113354385
141.00289705209434	0.5	face	female	1	0.36083851708099246
142.50286992499605	0.5	face	male	1	0.3818653370253742
144.0028406358324	0.5	face	male	1	0.3749298192560673
145.5028210049495	0.5	face	male	1	0.3639115379191935
147.00280683115125	0.5	face	female	1	0.40593270491808653
163.5025979350321	0.5	scene	indoor	1	0.5381426359526813
165.00256835203618	0.5	scene	indoor	1	0.5400964501313865
166.50254087196663	0.5	scene	outdoor	1	0.513124740216881
168.00252238102257	0.5	scene	outdoor	1	0.49413930997252464
169.50250775320455	0.5	scene	indoor	1	0.44423213973641396
171.00248038116843	0.5	scene	outdoor	1	0.47925740480422974
172.50246182316914	0.5	scene	indoor	1	0.5172512559220195
174.00244089402258	0.5	scene	indoor	1	0.5382998990826309
175.50242388807237	0.5	scene	outdoor	1	0.45431885169819
177.00240152096376	0.5	scene	outdoor	1	0.5253433319739997
193.50218057399616	0.5	object	natural	1	0.6005662339739501
195.00217439001426	0.5	object	natural	1	0.5265122130513191
196.5021743858233	0.5	object	manmade	1	0.5635170713067055
198.00212270813063	0.5	object	natural	1	0.4065972347743809
199.50211031315848	0.5	object	manmade	1	0.6266387440264225
201.00208241399378	0.5	object	manmade	1	0.5926656220108271
202.5020687491633	0.5	object	manmade	1	0.6196826878003776
204.00204299297184	0.5	object	natural	1	0.528716326225549
205.50201656809077	0.5	object	natural	1	0.5617147008888423
207.0019953311421	0.5	object	manmade	1	0.5707557038404047
223.501779939048	0.5	face	male	1	0.49296937603503466
225.00175962084904	0.5	face	male	1	0.37692332500591874
226.50174518907443	0.5	face	female	1	0.35100621171295643
228.0017206161283	0.5	face	male	1	0.40004928689450026
229.50169538380578	0.5	face	female	1	0.5090503180399537
231.00168232992291	0.5	face	male	1	0.3470623609609902
232.5016701198183	0.5	face	female	1	0.33606231305748224
234.00164348213002	0.5	face	female	1	0.4341098330914974
235.50161953317001	0.5	face	female	1	0.5071312566287816
237.00160224922	0.5	face	male	1	0.7641520886681974
253.50137964310125	0.5	face	male	1	0.361367825884372
255.0013673589565	0.5	face	female	1	0.3563436199910939
256.5013413801789	0.5	face	female	1	0.38040979392826557
258.0013307039626	0.5	face	male	1	0.3834139471873641
259.50129869999364	0.5	face	male	1	0.38946089893579483
261.00128896394745	0.5	face	female	1	0.4834626791998744
262.50125763518736	0.5	face	female	1	0.441500058863312
264.00126427505165	0.5	face	male	1	0.368487318046391
265.50121789518744	0.5	face	female	1	0.47753850370645523
267.00120891584083	0.5	face	male	1	0.3255485803820193
283.5009845290333	0.5	scene	outdoor	1	0.725770247168839
285.0009577651508	0.5	scene	outdoor	1	0.5398021768778563
286.5009429338388	0.5	scene	indoor	0	0.390842049382627
288.00091786310077	0.5	scene	indoor	n/a	n/a
289.50090330513194	0.5	scene	outdoor	1	0.7398584559559822
291.0008874940686	0.5	scene	outdoor	1	0.6698657888919115
292.50086950697005	0.5	scene	outdoor	1	0.7198042841628194
294.00084043620154	0.5	scene	indoor	1	0.6889222459867597
295.5008253818378	0.5	scene	indoor	1	0.5529325343668461
297.00080782407895	0.5	scene	indoor	1	0.7499494729563594
313.50057384511456	0.5	object	natural	1	0.6131382947787642
314.98388113919646	0.5	object	natural	1	0.4768776297569275
316.48386945109814	0.5	object	manmade	1	0.5018864190205932
317.9838386760093	0.5	object	manmade	1	0.5239175171591341
319.48381835315377	0.5	object	manmade	1	0.7799536096863449
320.98383115883917	0.5	object	natural	1	0.4649294721893966
322.48377512022853	0.5	object	manmade	1	0.4839845527894795
323.983755255118	0.5	object	manmade	1	0.5970035060308874
325.4837360838428	0.5	object	natural	1	0.4700229102745652
326.98371773492545	0.5	object	natural	1	0.6480427840724587
343.48350531701	0.5	face	female	1	0.4172563827596605
344.9834947800264	0.5	face	female	1	0.4591974369250238
346.48346326407045	0.5	face	male	1	0.3943020827136934
347.98344989679754	0.5	face	male	1	0.49625223129987717
349.48342139692977	0.5	face	male	1	0.40134373819455504
350.9834009790793	0.5	face	male	1	0.360362630803138
352.48337787622586	0.5	face	female	1	0.3483859240077436
353.9833716452122	0.5	face	male	1	0.4113289047963917
355.4833506587893	0.5	face	female	1	0.4324156204238534
356.9833209258504	0.5	face	female	1	0.509415116161108
373.4831030620262	0.5	scene	indoor	1	0.5506604327820241
374.9830895802006	0.5	scene	indoor	1	0.6206791908480227
376.48306208709255	0.5	scene	indoor	1	0.6787036657333374
377.9830405320972	0.5	scene	outdoor	1	0.4077308108098805
379.48302265815437	0.5	scene	outdoor	1	0.487665134947747
380.9830032978207	0.5	scene	indoor	1	0.5577528332360089
382.4829831039533	0.5	scene	outdoor	1	0.6607810771092772
383.9829620649107	0.5	scene	outdoor	1	0.7118079042993486
385.4829435441643	0.5	scene	indoor	1	0.6127982097677886
386.9829236860387	0.5	scene	outdoor	1	0.6617666729725897
403.48271604813635	0.5	face	male	n/a	n/a
404.9826873601414	0.5	face	female	1	0.3630860969424248
406.48266024608165	0.5	face	male	1	0.3690708391368389
407.98264656495303	0.5	face	female	1	0.4401303748600185
409.48263539606705	0.5	face	female	1	0.4920664858072996
410.9825986851938	0.5	face	female	1	0.47415126394480467
412.4825791041367	0.5	face	male	1	0.6101824836805463
413.9825650881976	0.5	face	male	1	0.42720317281782627
415.48254209104925	0.5	face	male	1	0.3911590841598809
416.98253772221506	0.5	face	female	1	0.3422044296748936
433.4822988510132	0.5	scene	outdoor	1	0.511471054982394
434.9859668649733	0.5	scene	indoor	1	0.5558084831573069
436.4822784392163	0.5	scene	indoor	1	0.5364635018631816
437.9822396459058	0.5	scene	outdoor	1	0.37954055005684495
439.48222217615694	0.5	scene	indoor	1	0.9905587928369641
440.98221151018515	0.5	scene	indoor	1	0.7855657748878002
442.48219213308766	0.5	scene	outdoor	1	0.4735892456956208
443.9821611191146	0.5	scene	outdoor	1	0.6226132051087916
445.48214515997097	0.5	scene	outdoor	1	0.4076309078373015
446.9821215188131	0.5	scene	indoor	1	0.5966529683209956
