onset	duration	trial_type	condition	repetition	pairmate	pairID	category	subcategory	response_accuracy	response_time
13.50525045703398	1	prelearning	nonviolation	1	B	85	scene	indoor	1	0.6129727369989268
16.505209517024923	1	prelearning	violation	1	B	36	scene	indoor	1	0.556008874962572
19.505170378019105	1	prelearning	violation	1	B	40	scene	outdoor	1	0.5230554909794591
22.505145289993376	1	prelearning	nonviolation	1	A	84	scene	indoor	1	0.4710761380265467
25.50509196403436	1	prelearning	nonviolation	1	B	87	scene	outdoor	1	0.4941333589958958
28.50505333201727	1	prelearning	nonviolation	1	A	83	scene	indoor	1	0.5131727959960699
31.50501750898548	1	prelearning	violation	1	B	33	scene	indoor	1	0.5031373410020024
34.504994713992346	1	prelearning	nonviolation	1	B	83	scene	indoor	1	0.5652231270214543
37.50494126998819	1	prelearning	nonviolation	1	A	88	scene	outdoor	1	0.6732908360427245
40.50489311001729	1	prelearning	violation	1	A	35	scene	outdoor	1	0.5073269049753435
43.50485576601932	1	prelearning	violation	1	A	34	scene	indoor	1	0.5273653739714064
46.50482394301798	1	prelearning	violation	1	A	33	scene	indoor	1	0.6954005520092323
49.504774361033924	1	prelearning	violation	1	A	37	scene	indoor	1	0.4964543769601733
52.50474161899183	1	prelearning	nonviolation	1	A	85	scene	indoor	1	0.7854844490066171
55.50470276700798	1	prelearning	nonviolation	1	B	81	scene	indoor	1	0.6345184349920601
58.50465509202331	1	prelearning	violation	1	B	38	scene	outdoor	1	0.5195713159628212
61.504620013991364	1	prelearning	violation	1	B	34	scene	outdoor	1	0.4926036310498602
64.50458269502269	1	prelearning	nonviolation	1	A	87	scene	outdoor	1	0.4606440630159341
67.50453916302651	1	prelearning	nonviolation	1	A	82	scene	indoor	1	0.5146836809581146
70.50450453400846	1	prelearning	violation	1	A	39	scene	outdoor	1	0.5507125289877877
73.5044629490003	1	prelearning	violation	1	B	37	scene	indoor	1	0.5657667070045136
76.50442187598674	1	prelearning	nonviolation	1	A	86	scene	outdoor	1	0.8536843089968897
79.50437626702478	1	prelearning	nonviolation	1	A	81	scene	outdoor	1	0.5668525520013645
82.50434008298906	1	prelearning	nonviolation	1	B	84	scene	outdoor	1	0.7578856240143068
85.50430957198841	1	prelearning	nonviolation	1	B	88	scene	outdoor	1	0.4129160090233199
88.50426899699958	1	prelearning	violation	1	B	39	scene	outdoor	1	0.4889594219857827
91.50421729299705	1	prelearning	violation	1	A	36	scene	outdoor	1	0.5860121120349504
94.50417418900179	1	prelearning	violation	1	A	40	scene	indoor	1	0.4850595560274087
97.50413579301676	1	prelearning	nonviolation	1	B	86	scene	indoor	1	0.6219752879696898
100.50409850198777	1	prelearning	nonviolation	1	B	82	scene	outdoor	1	0.5491303770104423
103.50407883501612	1	prelearning	violation	1	A	38	scene	outdoor	1	0.5821508590015583
106.50403071398615	1	prelearning	violation	1	B	35	scene	indoor	1	0.5361513230018318
109.5040426159976	1	learning	nonviolation	2	A	81	scene	outdoor	1	0.7841897599864751
112.5039368540165	1	learning	nonviolation	2	B	81	scene	indoor	1	0.5182934940094128
115.50390346703352	1	learning	violation	2	A	33	scene	indoor	1	0.535328606958501
118.50385953200748	1	learning	violation	2	B	33	scene	indoor	1	0.5363689300138503
121.50381878198824	1	learning	violation	2	A	34	scene	indoor	1	0.5254067410132848
124.5037787790061	1	learning	violation	2	B	34	scene	outdoor	1	0.5224526840029284
127.50375163799616	1	learning	nonviolation	2	A	82	scene	indoor	1	0.5714854529942386
130.50370579300215	1	learning	nonviolation	2	B	82	scene	outdoor	1	0.5165266069816425
133.50366475002377	1	learning	violation	2	A	35	scene	outdoor	1	0.4545675719855353
136.5036244239891	1	learning	violation	2	B	35	scene	indoor	1	0.4826107530388981
139.5035848619882	1	learning	nonviolation	2	A	83	scene	indoor	1	0.6286495510139503
142.50353965401882	1	learning	nonviolation	2	B	83	scene	indoor	1	0.5597036319668405
145.50350037799214	1	learning	violation	2	A	36	scene	outdoor	1	0.5487324330024421
148.50345689803362	1	learning	violation	2	B	36	scene	indoor	1	0.5947833069949411
151.5034093229915	1	learning	nonviolation	2	A	84	scene	indoor	1	0.5498311170376837
154.50338127603754	1	learning	nonviolation	2	B	84	scene	outdoor	1	0.4768560869852081
157.50333380198572	1	learning	nonviolation	3	A	81	scene	outdoor	1	0.5379086130415089
160.50330218998715	1	learning	nonviolation	3	B	81	scene	indoor	1	0.4939320360426791
163.50325688399607	1	learning	nonviolation	2	A	85	scene	indoor	1	0.5409301469917409
166.50322257500375	1	learning	nonviolation	2	B	85	scene	indoor	1	0.6340206940076314
169.50320391799326	1	learning	nonviolation	3	A	83	scene	indoor	1	0.5710333640454337
172.50317005801483	1	learning	nonviolation	3	B	83	scene	indoor	1	0.44007013697409997
175.5030979570001	1	learning	violation	3	A	33	scene	indoor	1	0.5241446259897202
178.50305355101588	1	learning	violation	3	B	33	scene	indoor	1	0.5691861810046248
181.50302017398644	1	learning	violation	2	A	37	scene	indoor	1	0.5262194170500152
184.5029736700235	1	learning	violation	2	B	37	scene	indoor	1	0.4792669409653172
187.5029399730265	1	learning	violation	2	A	38	scene	outdoor	1	0.6342996209859848
190.50290464400314	1	learning	violation	2	B	38	scene	outdoor	1	0.5743338260217571
193.50285364902808	1	learning	violation	2	A	39	scene	outdoor	1	0.5543962329975329
196.50282540003536	1	learning	violation	2	B	39	scene	outdoor	1	0.5644173169857822
199.5027712190058	1	learning	violation	4	A	33	scene	indoor	1	0.6194745969842188
202.50273306603776	1	learning	violation	4	B	33	scene	indoor	1	0.4435082269483246
205.50269188801758	1	learning	violation	3	A	38	scene	outdoor	1	0.6095510559971444
208.50264792703086	1	learning	violation	3	B	38	scene	outdoor	1	0.5345981279970147
211.50262695900162	1	learning	violation	3	A	35	scene	outdoor	1	0.5076195130241103
214.50257622200297	1	learning	violation	3	B	35	scene	indoor	1	0.5146704030339606
217.5025302169961	1	learning	violation	3	A	39	scene	outdoor	1	0.5447124229976907
220.50249048200203	1	learning	violation	3	B	39	scene	outdoor	1	0.5617566460277885
223.5024472580408	1	learning	nonviolation	3	A	82	scene	indoor	1	0.5227954239817336
226.50241063401336	1	learning	nonviolation	3	B	82	scene	outdoor	1	0.463838430994656
229.50236799399138	1	learning	violation	3	A	36	scene	outdoor	1	0.5048760650097392
232.50234156800437	1	learning	violation	3	B	36	scene	indoor	1	0.5419061110005714
235.5022914650035	1	learning	nonviolation	3	A	85	scene	indoor	1	0.5109570210333914
238.50225042901002	1	learning	nonviolation	3	B	85	scene	indoor	1	0.4510007189819589
241.50220944103782	1	violation	violation	5	A	33	scene	indoor	1	0.5470429089618847
244.50216478703084	1	violation	violation	1	X	33	face	female	1	0.6010842350078747
247.50213727500525	1	learning	violation	3	A	34	scene	indoor	1	0.7251171530224383
250.50208504899638	1	learning	violation	3	B	34	scene	outdoor	1	0.5271741910255514
253.5020514870412	1	learning	nonviolation	4	A	81	scene	outdoor	1	0.8160253059468232
256.5020075039938	1	learning	nonviolation	4	B	81	scene	indoor	1	0.5552404830232263
259.50197186198784	1	learning	violation	4	A	39	scene	outdoor	1	0.47329878201708203
262.5019263580325	1	learning	violation	4	B	39	scene	outdoor	1	0.5133296760031953
265.5018865630264	1	learning	nonviolation	3	A	84	scene	indoor	1	0.4743688390008174
268.5018534050323	1	learning	nonviolation	3	B	84	scene	outdoor	1	0.5483992609661072
271.48512539902003	1	learning	violation	4	A	35	scene	outdoor	1	0.66212703299243
274.48508575500455	1	learning	violation	4	B	35	scene	indoor	1	0.4901659419992938
277.4850439290167	1	learning	violation	3	A	37	scene	indoor	1	0.5712092330213636
280.5016830470413	1	learning	violation	3	B	37	scene	indoor	1	0.4765775789855979
283.5016402270412	1	learning	nonviolation	4	A	84	scene	indoor	1	0.4656194679555483
286.4849250080297	1	learning	nonviolation	4	B	84	scene	outdoor	1	0.5153286959975958
289.4848938710056	1	learning	nonviolation	4	A	82	scene	indoor	1	0.5273601909866557
292.4848531010212	1	learning	nonviolation	4	B	82	scene	outdoor	1	0.5313961280044168
295.4848121710238	1	learning	nonviolation	4	A	83	scene	indoor	1	0.5034042120096274
298.4847770769848	1	learning	nonviolation	4	B	83	scene	indoor	1	0.5354793000151403
301.48472837801086	1	learning	nonviolation	4	A	85	scene	indoor	1	0.5085278199985623
304.48469031101564	1	learning	nonviolation	4	B	85	scene	indoor	1	0.4685662370175123
307.484649081016	1	restudy	nonviolation	5	B	84	scene	outdoor	1	0.5076053210068494
310.4846347270068	1	learning	violation	4	A	38	scene	outdoor	1	0.4946241290308535
313.484566336032	1	learning	violation	4	B	38	scene	outdoor	1	0.5216879129875451
316.4845269140205	1	restudy	nonviolation	5	B	82	scene	outdoor	1	0.5227312240167521
319.484492099029	1	restudy	violation	5	B	33	scene	indoor	1	0.4976438310113736
322.4844424020266	1	restudy	nonviolation	5	B	81	scene	indoor	1	0.5068205319694243
325.4844030130189	1	learning	violation	4	A	36	scene	outdoor	1	0.5518578349729069
328.48437441902934	1	learning	violation	4	B	36	scene	indoor	1	0.5338876739842817
331.48434053902747	1	violation	violation	5	A	39	scene	outdoor	1	0.62190951599041
334.48428378399694	1	violation	violation	1	X	39	face	male	1	0.7249764149892144
337.48424460098613	1	learning	violation	2	A	40	scene	indoor	1	0.7730151930009015
340.48421214398695	1	learning	violation	2	B	40	scene	outdoor	1	0.5410450140479952
343.4841676250217	1	learning	violation	4	A	34	scene	indoor	1	0.5490940079907887
346.4841414510156	1	learning	violation	4	B	34	scene	outdoor	1	0.6031255319830962
349.4840795760392	1	restudy	nonviolation	6	B	82	scene	outdoor	1	0.5621840969542973
352.4840402000118	1	restudy	nonviolation	6	B	84	scene	outdoor	1	0.4712261829990894
355.48401911201654	1	learning	violation	4	A	37	scene	indoor	1	0.515244290989358
358.48396186798345	1	learning	violation	4	B	37	scene	indoor	1	0.5323053380125202
361.48392977798363	1	violation	violation	5	A	35	scene	outdoor	1	0.5223296400508843
364.4838767240289	1	violation	violation	1	X	35	face	female	1	0.6393843059777282
367.48384022299433	1	restudy	nonviolation	6	B	81	scene	indoor	1	1.0074168450082652
370.4838034330169	1	violation	violation	5	A	37	scene	indoor	1	0.5394604000030085
373.4837600840257	1	violation	violation	1	X	37	face	female	1	0.5375052519957535
376.48371996800415	1	violation	violation	6	A	33	scene	indoor	1	0.6875456559937447
379.48368610802567	1	violation	violation	1	Y	33	face	female	1	0.5915810209698975
382.4836369120168	1	restudy	violation	5	B	35	scene	indoor	1	0.5416254670126364
385.48360121803125	1	restudy	violation	5	B	37	scene	indoor	1	0.5785385869676247
388.48357196198776	1	violation	violation	5	A	34	scene	indoor	1	0.5726946250069886
391.48352368501946	1	violation	violation	1	X	34	face	male	1	0.5927488930174151
394.48347112402547	1	restudy	nonviolation	5	B	83	scene	indoor	1	0.5187962980126031
397.4834354289924	1	restudy	nonviolation	5	B	85	scene	indoor	1	0.5618240920011885
400.4834069900098	1	violation	violation	5	A	36	scene	outdoor	1	0.6608701479854062
403.4833604409942	1	violation	violation	1	X	36	face	female	1	0.6989149880246259
406.4833141540294	1	violation	violation	5	A	38	scene	outdoor	1	0.5059590949676931
409.4832734499942	1	violation	violation	1	X	38	face	male	1	0.6269970459979959
412.48323562502634	1	restudy	violation	5	B	39	scene	outdoor	1	0.6130335559719242
415.4831908220076	1	restudy	violation	6	B	33	scene	indoor	1	0.5000817810068838
418.4831572350231	1	violation	violation	6	A	35	scene	outdoor	1	0.5031100409687497
421.4831108640065	1	violation	violation	1	Y	35	face	female	1	0.5441611310234293
424.4830668260111	1	violation	violation	6	A	37	scene	indoor	1	0.5972000869805925
427.4830271810061	1	violation	violation	1	Y	37	face	female	1	0.5842454429948702
430.48299094499083	1	learning	violation	3	A	40	scene	indoor	1	0.5782831500400789
433.4829474560102	1	learning	violation	3	B	40	scene	outdoor	1	0.5213237390271388
436.4829037440359	1	learning	nonviolation	2	A	86	scene	outdoor	1	0.5783704729983583
439.4828672099975	1	learning	nonviolation	2	B	86	scene	indoor	1	0.5544108540052548
442.4828343469999	1	restudy	violation	6	B	35	scene	indoor	1	0.5834366889903322
445.48278873303207	1	learning	nonviolation	2	A	87	scene	outdoor	1	0.4844834950054064
448.4827518020175	1	learning	nonviolation	2	B	87	scene	outdoor	1	0.5085190599784255
451.4827096569934	1	learning	nonviolation	2	A	88	scene	outdoor	1	0.5785666820011102
454.48267250601197	1	learning	nonviolation	2	B	88	scene	outdoor	1	0.4716076210024767
457.48262338299537	1	restudy	violation	5	B	34	scene	outdoor	1	0.5146576139959507
460.4825817430392	1	restudy	nonviolation	6	B	83	scene	indoor	1	0.4966939879814163
463.4825393190258	1	restudy	violation	6	B	37	scene	indoor	1	0.4927365420153365
466.4824993410148	1	learning	violation	4	A	40	scene	indoor	1	0.5197768289945088
469.48245825100463	1	learning	violation	4	B	40	scene	outdoor	1	0.5008161209989339
472.48242048802797	1	learning	nonviolation	3	A	88	scene	outdoor	1	0.5538596069673076
475.4823784480104	1	learning	nonviolation	3	B	88	scene	outdoor	1	0.4868992270203307
478.48234686302015	1	learning	nonviolation	3	A	87	scene	outdoor	1	0.4639315970125608
481.48230648401665	1	learning	nonviolation	3	B	87	scene	outdoor	1	0.4479711059830152
484.4822670600261	1	restudy	violation	5	B	36	scene	indoor	1	0.6590077469591051
487.4822236309992	1	violation	violation	6	A	39	scene	outdoor	1	0.5630576470284723
490.48217385599855	1	violation	violation	1	Y	39	face	male	1	0.5821021380252205
493.4821434250333	1	restudy	nonviolation	6	B	85	scene	indoor	1	0.5101349849719554
496.4820945870015	1	learning	nonviolation	4	A	87	scene	outdoor	1	0.5511828610324301
499.48206060501985	1	learning	nonviolation	4	B	87	scene	outdoor	1	0.5812312579946592
502.4820124839898	1	restudy	violation	5	B	38	scene	outdoor	1	0.582273141015321
505.48197490902396	1	learning	nonviolation	4	A	88	scene	outdoor	1	0.5683030349900946
508.4819349010359	1	learning	nonviolation	4	B	88	scene	outdoor	1	0.4602242819964886
511.4818899140228	1	learning	nonviolation	3	A	86	scene	outdoor	1	0.6753916669986211
514.4818526700254	1	learning	nonviolation	3	B	86	scene	indoor	1	0.4894288789946586
517.4818175639957	1	violation	violation	6	A	34	scene	indoor	1	0.4484716469887644
520.481771169987	1	violation	violation	1	Y	34	face	male	1	0.5795125020085834
523.4817254180089	1	violation	violation	5	A	40	scene	indoor	1	0.5175547369872221
526.4816971269902	1	violation	violation	1	X	40	face	male	1	0.6505904340301639
529.4816541339969	1	learning	nonviolation	4	A	86	scene	outdoor	1	0.7146377430181019
532.4816061210004	1	learning	nonviolation	4	B	86	scene	indoor	1	0.5296800659853034
535.4815751360147	1	violation	violation	6	A	36	scene	outdoor	1	0.5657165920129046
538.4815260100295	1	violation	violation	1	Y	36	face	female	1	0.5997605649754405
541.4814829840325	1	restudy	violation	6	B	39	scene	outdoor	1	0.4988004259648733
544.4814465779928	1	restudy	nonviolation	5	B	87	scene	outdoor	1	0.4778440330410376
547.4814104220131	1	restudy	nonviolation	5	B	86	scene	indoor	1	0.5148774199769832
550.4813690379959	1	restudy	violation	5	B	40	scene	outdoor	1	0.523920523992274
553.4813240930089	1	violation	violation	6	A	38	scene	outdoor	1	0.4749650239828042
556.4812821979867	1	violation	violation	1	Y	38	face	male	1	0.5880050760461017
559.4812506739981	1	restudy	nonviolation	5	B	88	scene	outdoor	1	0.5120385609916411
562.4811988130095	1	restudy	nonviolation	6	B	87	scene	outdoor	1	0.4480952579760924
565.4811637100065	1	restudy	violation	6	B	34	scene	outdoor	1	0.4811315530096181
568.4811352360413	1	violation	violation	6	A	40	scene	indoor	1	0.5051611659582704
571.4810797440005	1	violation	violation	1	Y	40	face	male	1	0.5191713779931888
574.4810390649945	1	restudy	nonviolation	6	B	86	scene	indoor	1	0.4771316060214304
577.480994499987	1	restudy	nonviolation	6	B	88	scene	outdoor	1	0.5362963690422475
580.4809627979994	1	restudy	violation	6	B	40	scene	outdoor	1	0.4923278060159646
583.480915645021	1	restudy	violation	6	B	36	scene	indoor	1	0.5224155890173279
586.4808773410041	1	restudy	violation	6	B	38	scene	outdoor	1	0.4764173820149154
