onset	duration	trial_type	reward_condition	condition	repetition	pairmate	pairID	response_accuracy	response_time
13.512344630002188	2.5	scene	neutral	nonviolation	1	A	70	1	0.6317065879993606
16.01234463000219	3.0	feedback	n/a	n/a	n/a	n/a	n/a	n/a	n/a
19.51226568400307	2.5	scene	reward	violation	1	A	8	1	0.935766351998609
22.012265684003072	3.0	feedback	n/a	n/a	n/a	n/a	n/a	n/a	n/a
25.512185683001015	2.5	scene	reward	nonviolation	1	A	85	1	0.7137620600005903
28.012185683001015	3.0	feedback	n/a	n/a	n/a	n/a	n/a	n/a	n/a
31.51210638400153	2.5	scene	reward	violation	1	A	17	1	0.7668961310009763
34.012106384001534	3.0	feedback	n/a	n/a	n/a	n/a	n/a	n/a	n/a
37.51202690900027	2.5	scene	reward	violation	1	A	25	0	0.832010103000357
40.01202690900027	3.0	feedback	n/a	n/a	n/a	n/a	n/a	n/a	n/a
43.51194941500216	2.5	scene	neutral	violation	1	A	5	1	1.287089607998496
46.01194941500216	3.0	feedback	n/a	n/a	n/a	n/a	n/a	n/a	n/a
49.51186515600057	2.5	scene	neutral	violation	1	A	28	1	0.9091679110024417
52.01186515600057	3.0	feedback	n/a	n/a	n/a	n/a	n/a	n/a	n/a
55.51178571900164	2.5	scene	reward	violation	1	A	18	1	1.0051717610003834
58.01178571900164	3.0	feedback	n/a	n/a	n/a	n/a	n/a	n/a	n/a
61.51170637200266	2.5	scene	reward	nonviolation	1	A	91	0	1.012334371000179
64.01170637200266	3.0	feedback	n/a	n/a	n/a	n/a	n/a	n/a	n/a
67.51162682700306	2.5	scene	reward	nonviolation	1	A	64	1	0.8904083239976899
70.01162682700306	3.0	feedback	n/a	n/a	n/a	n/a	n/a	n/a	n/a
73.51154612200115	2.5	scene	reward	nonviolation	1	A	66	1	0.7765751150000142
76.01154612200115	3.0	feedback	n/a	n/a	n/a	n/a	n/a	n/a	n/a
79.51146500300092	2.5	scene	reward	nonviolation	1	A	79	0	1.1485836159990868
82.01146500300092	3.0	feedback	n/a	n/a	n/a	n/a	n/a	n/a	n/a
85.51138564400026	2.5	scene	neutral	nonviolation	1	A	57	1	0.9036567020011717
88.01138564400026	3.0	feedback	n/a	n/a	n/a	n/a	n/a	n/a	n/a
91.51130784100313	2.5	scene	neutral	nonviolation	1	A	52	1	0.8357439569990674
94.01130784100313	3.0	feedback	n/a	n/a	n/a	n/a	n/a	n/a	n/a
97.51122311600193	2.5	scene	reward	violation	1	A	31	1	0.8868282350013033
100.01122311600193	3.0	feedback	n/a	n/a	n/a	n/a	n/a	n/a	n/a
103.5111455960032	2.5	scene	reward	violation	1	A	6	1	1.0769073159972322
106.0111455960032	3.0	feedback	n/a	n/a	n/a	n/a	n/a	n/a	n/a
109.51106292600159	2.5	scene	neutral	nonviolation	1	A	68	1	1.0929776810007752
112.01106292600159	3.0	feedback	n/a	n/a	n/a	n/a	n/a	n/a	n/a
115.51098304300105	2.5	scene	reward	violation	1	A	9	1	0.7210805960021389
118.01098304300105	3.0	feedback	n/a	n/a	n/a	n/a	n/a	n/a	n/a
121.51090413300336	2.5	scene	neutral	nonviolation	1	A	88	1	2.0211440409984793
124.01090413300336	3.0	feedback	n/a	n/a	n/a	n/a	n/a	n/a	n/a
127.49421969400282	2.5	scene	neutral	nonviolation	1	A	80	1	0.8518265200000315
129.99421969400282	3.0	feedback	n/a	n/a	n/a	n/a	n/a	n/a	n/a
133.51074322100249	2.5	scene	reward	nonviolation	1	A	69	1	0.8992296430005808
136.01074322100249	3.0	feedback	n/a	n/a	n/a	n/a	n/a	n/a	n/a
139.51066320500104	2.5	scene	reward	violation	1	A	34	1	0.8583838869999454
142.01066320500104	3.0	feedback	n/a	n/a	n/a	n/a	n/a	n/a	n/a
145.4939177410015	2.5	scene	neutral	nonviolation	1	A	89	1	0.8051303649990587
147.9939177410015	3.0	feedback	n/a	n/a	n/a	n/a	n/a	n/a	n/a
151.49383708599996	2.5	scene	neutral	violation	1	A	12	1	1.0872118750012305
153.99383708599996	3.0	feedback	n/a	n/a	n/a	n/a	n/a	n/a	n/a
157.49375663200044	2.5	scene	neutral	nonviolation	1	A	60	1	0.7372955089995229
159.99375663200044	3.0	feedback	n/a	n/a	n/a	n/a	n/a	n/a	n/a
163.4936763350015	2.5	scene	neutral	violation	1	A	37	1	0.6743730890011648
165.9936763350015	3.0	feedback	n/a	n/a	n/a	n/a	n/a	n/a	n/a
169.49359620100222	2.5	scene	reward	violation	1	A	40	1	0.7574591720003809
171.99359620100225	3.0	feedback	n/a	n/a	n/a	n/a	n/a	n/a	n/a
175.49351622800168	2.5	scene	neutral	nonviolation	1	A	50	1	0.948542851001548
177.99351622800168	3.0	feedback	n/a	n/a	n/a	n/a	n/a	n/a	n/a
181.49343558500183	2.5	scene	neutral	violation	1	A	48	1	0.6766158450009243
183.99343558500183	3.0	feedback	n/a	n/a	n/a	n/a	n/a	n/a	n/a
187.49335470200091	2.5	scene	reward	nonviolation	1	A	87	1	1.2246957470015332
189.99335470200091	3.0	feedback	n/a	n/a	n/a	n/a	n/a	n/a	n/a
193.49327574400013	2.5	scene	neutral	violation	1	A	13	1	1.0937877040014428
195.99327574400013	3.0	feedback	n/a	n/a	n/a	n/a	n/a	n/a	n/a
199.49319672300044	2.5	scene	neutral	violation	1	A	22	1	0.7898642569998628
201.99319672300044	3.0	feedback	n/a	n/a	n/a	n/a	n/a	n/a	n/a
205.49311686300283	2.5	scene	neutral	violation	1	A	4	1	0.7050193399991258
207.99311686300283	3.0	feedback	n/a	n/a	n/a	n/a	n/a	n/a	n/a
211.49303328800303	2.5	scene	reward	violation	1	A	10	0	0.5660270749976917
213.99303328800303	3.0	feedback	n/a	n/a	n/a	n/a	n/a	n/a	n/a
217.49295302100293	2.5	scene	neutral	nonviolation	1	A	93	1	0.6171072990000539
219.99295302100293	3.0	feedback	n/a	n/a	n/a	n/a	n/a	n/a	n/a
223.49287043400184	2.5	scene	reward	nonviolation	1	A	96	1	1.0211854330009371
225.99287043400184	3.0	feedback	n/a	n/a	n/a	n/a	n/a	n/a	n/a
229.4927917290006	2.5	scene	neutral	violation	1	A	46	1	0.5662699929998779
231.9927917290006	3.0	feedback	n/a	n/a	n/a	n/a	n/a	n/a	n/a
235.49271015400157	2.5	scene	neutral	nonviolation	1	A	83	1	0.6163610590010649
237.99271015400157	3.0	feedback	n/a	n/a	n/a	n/a	n/a	n/a	n/a
241.4964810010024	2.5	scene	reward	nonviolation	1	A	73	1	0.6995805149999796
243.9964810010024	3.0	feedback	n/a	n/a	n/a	n/a	n/a	n/a	n/a
247.4969967140023	2.5	scene	neutral	violation	1	A	23	1	0.9310667729987472
249.9969967140023	3.0	feedback	n/a	n/a	n/a	n/a	n/a	n/a	n/a
253.49673415400318	2.5	scene	reward	violation	1	A	43	1	0.9614115320000564
255.99673415400318	3.0	feedback	n/a	n/a	n/a	n/a	n/a	n/a	n/a
259.4954723160008	2.5	scene	reward	nonviolation	1	A	53	0	0.6296024900002521
261.9954723160008	3.0	feedback	n/a	n/a	n/a	n/a	n/a	n/a	n/a
265.4954969850005	2.5	scene	reward	nonviolation	1	A	51	1	1.0375756030007324
267.9954969850005	3.0	feedback	n/a	n/a	n/a	n/a	n/a	n/a	n/a
271.4962993170011	2.5	scene	neutral	violation	1	A	32	1	0.8487388520006789
273.9962993170011	3.0	feedback	n/a	n/a	n/a	n/a	n/a	n/a	n/a
277.4960455940017	2.5	scene	neutral	violation	1	A	38	1	1.1030244350004068
279.9960455940017	3.0	feedback	n/a	n/a	n/a	n/a	n/a	n/a	n/a
283.49484832300004	2.5	scene	neutral	nonviolation	1	A	78	1	0.5932194920023903
285.99484832300004	3.0	feedback	n/a	n/a	n/a	n/a	n/a	n/a	n/a
289.49458734900327	2.5	scene	reward	violation	1	A	47	1	1.2644802859977062
291.99458734900327	3.0	feedback	n/a	n/a	n/a	n/a	n/a	n/a	n/a
295.49432562400034	2.5	scene	reward	nonviolation	1	A	58	1	0.6957505720019981
297.99432562400034	3.0	feedback	n/a	n/a	n/a	n/a	n/a	n/a	n/a
301.49406176100086	2.5	scene	reward	violation	2	A	9	1	0.6770074580017535
303.99406176100086	3.0	feedback	n/a	n/a	n/a	n/a	n/a	n/a	n/a
307.49458663300175	2.5	scene	reward	nonviolation	2	A	96	1	1.045486119000998
309.99458663300175	3.0	feedback	n/a	n/a	n/a	n/a	n/a	n/a	n/a
313.4933285860025	2.5	scene	neutral	nonviolation	2	A	70	1	0.6677426979986194
315.9933285860025	3.0	feedback	n/a	n/a	n/a	n/a	n/a	n/a	n/a
319.4920717109999	2.5	scene	reward	nonviolation	2	A	73	1	0.8479970480002521
321.9920717109999	3.0	feedback	n/a	n/a	n/a	n/a	n/a	n/a	n/a
325.49281366000287	2.5	scene	reward	nonviolation	2	A	53	1	0.7982679859997006
327.99281366000287	3.0	feedback	n/a	n/a	n/a	n/a	n/a	n/a	n/a
331.49256163400065	2.5	scene	reward	violation	2	A	10	1	1.0105189220012107
333.99256163400065	3.0	feedback	n/a	n/a	n/a	n/a	n/a	n/a	n/a
337.49134533000324	2.5	scene	neutral	nonviolation	2	A	83	1	0.6197378929973638
339.99134533000324	3.0	feedback	n/a	n/a	n/a	n/a	n/a	n/a	n/a
343.4918292190014	2.5	scene	reward	violation	2	A	25	1	0.7292467420011235
345.9918292190014	3.0	feedback	n/a	n/a	n/a	n/a	n/a	n/a	n/a
349.4913473710003	2.5	scene	reward	nonviolation	2	A	64	1	0.7097266250020766
351.9913473710003	3.0	feedback	n/a	n/a	n/a	n/a	n/a	n/a	n/a
355.491103507	2.5	scene	neutral	nonviolation	2	A	88	1	0.6549782649999543
357.991103507	3.0	feedback	n/a	n/a	n/a	n/a	n/a	n/a	n/a
361.49102500300074	2.5	scene	neutral	nonviolation	2	A	89	1	0.6550526259998151
363.99102500300074	3.0	feedback	n/a	n/a	n/a	n/a	n/a	n/a	n/a
367.49134812700134	2.5	scene	reward	nonviolation	2	A	69	1	0.7796530919986253
369.99134812700134	3.0	feedback	n/a	n/a	n/a	n/a	n/a	n/a	n/a
373.4908632790029	2.5	scene	reward	violation	2	A	18	1	0.8542125969979679
375.9908632790029	3.0	feedback	n/a	n/a	n/a	n/a	n/a	n/a	n/a
379.49078538099997	2.5	scene	neutral	violation	2	A	38	1	0.8212899589998415
381.99078538099997	3.0	feedback	n/a	n/a	n/a	n/a	n/a	n/a	n/a
385.49070531300094	2.5	scene	neutral	violation	2	A	28	1	1.0273772770015055
387.99070531300094	3.0	feedback	n/a	n/a	n/a	n/a	n/a	n/a	n/a
391.4906252340006	2.5	scene	neutral	nonviolation	2	A	60	1	0.874452926000231
393.9906252340006	3.0	feedback	n/a	n/a	n/a	n/a	n/a	n/a	n/a
397.4905451980012	2.5	scene	neutral	violation	2	A	5	1	0.9134677200017904
399.9905451980012	3.0	feedback	n/a	n/a	n/a	n/a	n/a	n/a	n/a
403.49046528700273	2.5	scene	neutral	nonviolation	2	A	57	1	0.622694681998837
405.99046528700273	3.0	feedback	n/a	n/a	n/a	n/a	n/a	n/a	n/a
409.49039342200194	2.5	scene	neutral	violation	2	A	37	1	0.5626865599988378
411.99039342200194	3.0	feedback	n/a	n/a	n/a	n/a	n/a	n/a	n/a
415.49030453400337	2.5	scene	neutral	violation	2	A	23	1	0.5968369989968778
417.99030453400337	3.0	feedback	n/a	n/a	n/a	n/a	n/a	n/a	n/a
421.49022523000167	2.5	scene	neutral	nonviolation	2	A	93	1	0.5938597300009859
423.99022523000167	3.0	feedback	n/a	n/a	n/a	n/a	n/a	n/a	n/a
427.4901444770003	2.5	scene	neutral	nonviolation	2	A	80	1	0.7379356460005511
429.9901444770003	3.0	feedback	n/a	n/a	n/a	n/a	n/a	n/a	n/a
433.4900654410012	2.5	scene	reward	nonviolation	2	A	51	1	1.1940182649996132
435.9900654410012	3.0	feedback	n/a	n/a	n/a	n/a	n/a	n/a	n/a
439.48998642300285	2.5	scene	reward	nonviolation	2	A	66	1	0.6451049949973822
441.98998642300285	3.0	feedback	n/a	n/a	n/a	n/a	n/a	n/a	n/a
445.48990685000166	2.5	scene	reward	violation	2	A	34	1	0.6821823610007414
447.98990685000166	3.0	feedback	n/a	n/a	n/a	n/a	n/a	n/a	n/a
451.48982460900146	2.5	scene	reward	violation	2	A	40	1	0.631261780999921
453.98982460900146	3.0	feedback	n/a	n/a	n/a	n/a	n/a	n/a	n/a
457.489748688	2.5	scene	neutral	nonviolation	2	A	78	1	0.6193417630020122
459.989748688	3.0	feedback	n/a	n/a	n/a	n/a	n/a	n/a	n/a
463.48966714800184	2.5	scene	reward	nonviolation	2	A	91	1	0.7664393650011334
465.98966714800184	3.0	feedback	n/a	n/a	n/a	n/a	n/a	n/a	n/a
469.4895864260033	2.5	scene	reward	violation	2	A	17	1	0.6945050749964139
471.9895864260033	3.0	feedback	n/a	n/a	n/a	n/a	n/a	n/a	n/a
475.489504833	2.5	scene	reward	nonviolation	2	A	58	1	0.5426185989999794
477.989504833	3.0	feedback	n/a	n/a	n/a	n/a	n/a	n/a	n/a
481.4894251510013	2.5	scene	reward	violation	2	A	6	1	0.7126653910017922
483.9894251510013	3.0	feedback	n/a	n/a	n/a	n/a	n/a	n/a	n/a
487.4893465810019	2.5	scene	reward	violation	2	A	47	1	0.5847479830008524
489.9893465810019	3.0	feedback	n/a	n/a	n/a	n/a	n/a	n/a	n/a
493.4892675070005	2.5	scene	neutral	nonviolation	2	A	68	1	0.8898231800012582
495.9892675070005	3.0	feedback	n/a	n/a	n/a	n/a	n/a	n/a	n/a
499.48918551500174	2.5	scene	neutral	violation	2	A	32	1	0.7288654490002955
501.98918551500174	3.0	feedback	n/a	n/a	n/a	n/a	n/a	n/a	n/a
505.4891073350008	2.5	scene	neutral	nonviolation	2	A	52	1	0.7399834870011546
507.9891073350008	3.0	feedback	n/a	n/a	n/a	n/a	n/a	n/a	n/a
511.4890275850012	2.5	scene	neutral	violation	2	A	22	1	0.5650674520002212
513.9890275850012	3.0	feedback	n/a	n/a	n/a	n/a	n/a	n/a	n/a
517.488948481001	2.5	scene	reward	nonviolation	2	A	85	1	0.6470653809992655
519.988948481001	3.0	feedback	n/a	n/a	n/a	n/a	n/a	n/a	n/a
523.4888681970007	2.5	scene	neutral	violation	2	A	13	1	0.7822254929997143
525.9888681970007	3.0	feedback	n/a	n/a	n/a	n/a	n/a	n/a	n/a
529.4887861390016	2.5	scene	neutral	violation	2	A	46	1	0.5723123559982923
531.9887861390016	3.0	feedback	n/a	n/a	n/a	n/a	n/a	n/a	n/a
535.4887073160025	2.5	scene	neutral	nonviolation	2	A	50	1	0.6063892469974235
537.9887073160025	3.0	feedback	n/a	n/a	n/a	n/a	n/a	n/a	n/a
541.4886334750008	2.5	scene	neutral	violation	2	A	4	1	0.5444463849999011
543.9886334750008	3.0	feedback	n/a	n/a	n/a	n/a	n/a	n/a	n/a
547.4885495250019	2.5	scene	neutral	violation	2	A	48	1	0.6095486160011205
549.9885495250019	3.0	feedback	n/a	n/a	n/a	n/a	n/a	n/a	n/a
553.4718001920011	2.5	scene	reward	violation	2	A	43	1	0.6742992020008387
555.9718001920011	3.0	feedback	n/a	n/a	n/a	n/a	n/a	n/a	n/a
559.4883890020028	2.5	scene	reward	violation	2	A	31	1	0.7077099460002501
561.9883890020028	3.0	feedback	n/a	n/a	n/a	n/a	n/a	n/a	n/a
565.4883112140014	2.5	scene	reward	violation	2	A	8	1	0.6306554939983471
567.9883112140014	3.0	feedback	n/a	n/a	n/a	n/a	n/a	n/a	n/a
571.471564544001	2.5	scene	reward	nonviolation	2	A	87	1	0.6545384910023131
573.971564544001	3.0	feedback	n/a	n/a	n/a	n/a	n/a	n/a	n/a
577.4714826760028	2.5	scene	reward	nonviolation	2	A	79	1	0.927624656000262
579.9714826760028	3.0	feedback	n/a	n/a	n/a	n/a	n/a	n/a	n/a
583.4714050660003	2.5	scene	neutral	violation	2	A	12	1	0.7176223220012616
585.9714050660003	3.0	feedback	n/a	n/a	n/a	n/a	n/a	n/a	n/a
