onset	duration	trial_type	condition	repetition	pairmate	pairID	category	subcategory	response_accuracy	response_time
13.50038314703852	1	prelearning	violation	1	A	9	scene	outdoor	1	0.5705898610176519
16.500335871009153	1	prelearning	violation	1	B	14	scene	outdoor	1	0.5185533880721778
19.500298878061585	1	prelearning	nonviolation	1	A	62	scene	indoor	1	0.4306758859893307
22.500255161081444	1	prelearning	nonviolation	1	B	58	scene	outdoor	1	0.7107140929438174
25.500217413995408	1	prelearning	nonviolation	1	B	61	scene	indoor	1	0.4837583630578592
28.500177586101927	1	prelearning	violation	1	B	11	scene	indoor	1	0.6807974099647254
31.500136887072586	1	prelearning	violation	1	A	15	scene	outdoor	1	0.4428330949740485
34.500105200102546	1	prelearning	nonviolation	1	B	64	scene	indoor	1	0.4478657719446346
37.50005897099618	1	prelearning	violation	1	A	10	scene	indoor	1	0.6989146270789206
40.50001760199665	1	prelearning	violation	1	B	12	scene	outdoor	1	0.7969644221011549
43.499980479013175	1	prelearning	nonviolation	1	B	57	scene	outdoor	1	0.6169980700360611
46.49994109000546	1	prelearning	nonviolation	1	A	61	scene	outdoor	1	0.5190387460170314
49.49990341509693	1	prelearning	violation	1	B	16	scene	indoor	1	0.6580740639474243
52.4998589840252	1	prelearning	violation	1	B	10	scene	outdoor	1	0.8381206099875271
55.49982250505127	1	prelearning	violation	1	B	15	scene	outdoor	1	0.7101551030064002
58.49978538707364	1	prelearning	nonviolation	1	A	57	scene	outdoor	1	0.5861979930195957
61.49975118308794	1	prelearning	nonviolation	1	B	59	scene	indoor	1	0.611224437947385
64.49971143808216	1	prelearning	violation	1	B	9	scene	indoor	1	0.7102682819822803
67.49966006202158	1	prelearning	violation	1	A	16	scene	indoor	1	0.6653210520744324
70.49961775110569	1	prelearning	nonviolation	1	A	63	scene	indoor	1	0.5983649779809639
73.4995781990001	1	prelearning	nonviolation	1	A	60	scene	indoor	1	0.44639797206036747
76.49954672507009	1	prelearning	violation	1	A	13	scene	indoor	1	0.5814283259678632
79.49950726306997	1	prelearning	nonviolation	1	B	63	scene	indoor	1	0.6604816759936512
82.49946946103591	1	prelearning	violation	1	B	13	scene	indoor	0	0.998509505065158
85.49942816700785	1	prelearning	nonviolation	1	A	59	scene	indoor	1	0.5615614270791411
88.49938860000111	1	prelearning	violation	1	A	12	scene	outdoor	1	0.5815940659958869
91.49936975503807	1	prelearning	nonviolation	1	A	64	scene	outdoor	1	0.6276054129702969
94.49929905310272	1	prelearning	nonviolation	1	A	58	scene	outdoor	1	0.7476894319988787
97.49926635599695	1	prelearning	violation	1	A	14	scene	indoor	1	0.6407179600792006
100.49921848310623	1	prelearning	nonviolation	1	B	60	scene	outdoor	1	0.7037645729724318
103.49918772303499	1	prelearning	nonviolation	1	B	62	scene	outdoor	1	0.5057942940620705
106.49913941707928	1	prelearning	violation	1	A	11	scene	outdoor	1	0.5798444419633597
109.49909824610222	1	learning	nonviolation	2	A	57	scene	outdoor	1	0.5328828739002347
112.49906665401069	1	learning	nonviolation	2	B	57	scene	outdoor	1	0.5899227330228314
115.49902135599406	1	learning	nonviolation	2	A	58	scene	outdoor	1	0.5089652650058271
118.4989770090906	1	learning	nonviolation	2	B	58	scene	outdoor	1	0.5980096189305186
121.49894200102426	1	learning	nonviolation	2	A	59	scene	indoor	1	0.5120421800529584
124.498896730016	1	learning	nonviolation	2	B	59	scene	indoor	1	0.5980244060046971
127.49886247399263	1	learning	nonviolation	2	A	60	scene	indoor	1	0.4661322050960735
130.49881254101638	1	learning	nonviolation	2	B	60	scene	outdoor	1	0.7381773210363463
133.4987704330124	1	learning	nonviolation	2	A	61	scene	outdoor	1	0.4562241639941931
136.49873234308322	1	learning	nonviolation	2	B	61	scene	indoor	1	0.5762600000016391
139.49869086302348	1	learning	nonviolation	2	A	62	scene	indoor	1	0.4692982999840751
142.49864558700938	1	learning	nonviolation	2	B	62	scene	outdoor	1	0.6313500630203635
145.4986107870936	1	learning	violation	2	A	9	scene	outdoor	1	0.5113797169178724
148.498578597093	1	learning	violation	2	B	9	scene	indoor	1	0.48640999593772
151.49852708505932	1	learning	nonviolation	3	A	61	scene	outdoor	1	0.462468293029815
154.49848753004338	1	learning	nonviolation	3	B	61	scene	indoor	1	0.4514935200568289
157.49844837002456	1	learning	violation	2	A	10	scene	indoor	1	0.5855448989896104
160.49840832210614	1	learning	violation	2	B	10	scene	outdoor	1	0.5945827119285241
163.4983754390851	1	learning	violation	2	A	11	scene	outdoor	1	0.5476219109259546
166.49833535600916	1	learning	violation	2	B	11	scene	indoor	1	0.5746534520294517
169.4982837510761	1	learning	nonviolation	3	A	58	scene	outdoor	1	0.9027166810119523
172.49824300699402	1	learning	nonviolation	3	B	58	scene	outdoor	1	0.5997472140006721
175.49820324208122	1	learning	nonviolation	3	A	62	scene	indoor	1	0.5197939550271258
178.49816242710222	1	learning	nonviolation	3	B	62	scene	outdoor	1	0.4638293948955834
181.49812327104158	1	learning	nonviolation	3	A	59	scene	indoor	1	0.4807969080284238
184.49807942810003	1	learning	nonviolation	3	B	59	scene	indoor	1	0.4679122499655932
187.49804009206127	1	learning	violation	2	A	12	scene	outdoor	1	0.4818970899796114
190.4979977110634	1	learning	violation	2	B	12	scene	outdoor	1	0.5309968229848891
193.4979581040097	1	learning	nonviolation	4	A	58	scene	outdoor	1	0.5080413660034537
196.49792048207016	1	learning	nonviolation	4	B	58	scene	outdoor	1	0.5730733069358394
199.49787822307556	1	learning	nonviolation	3	A	60	scene	indoor	1	0.5441156609449536
202.4978350920137	1	learning	nonviolation	3	B	60	scene	outdoor	1	0.4791599720483646
205.4977946130093	1	learning	nonviolation	3	A	57	scene	outdoor	1	0.5342034540371969
208.49775403609962	1	learning	nonviolation	3	B	57	scene	outdoor	1	0.6762400089064613
211.497710715048	1	restudy	nonviolation	5	B	58	scene	outdoor	1	0.4932916020043194
214.49768243706782	1	learning	nonviolation	4	A	59	scene	indoor	1	0.4682321069994941
217.49764139601032	1	learning	nonviolation	4	B	59	scene	indoor	1	0.5103617790155113
220.4975909240311	1	learning	violation	3	A	12	scene	outdoor	1	0.5274144960567355
223.49755023501348	1	learning	violation	3	B	12	scene	outdoor	1	0.5053977239876986
226.49751943501175	1	learning	nonviolation	4	A	62	scene	indoor	1	0.4944823940750212
229.4974686470814	1	learning	nonviolation	4	B	62	scene	outdoor	1	0.5245331289479509
232.49742722301744	1	learning	violation	2	A	13	scene	indoor	1	0.5935731990030035
235.4973878270248	1	learning	violation	2	B	13	scene	indoor	1	0.6396143870661035
238.4973445630167	1	learning	violation	3	A	9	scene	outdoor	1	0.5456541799940169
241.4973052850692	1	learning	violation	3	B	9	scene	indoor	1	0.5837009099777788
244.497263244004	1	restudy	nonviolation	5	B	59	scene	indoor	1	0.4707713850075379
247.49722532404118	1	learning	violation	3	A	11	scene	outdoor	1	0.5487776199588552
250.49718813807704	1	learning	violation	3	B	11	scene	indoor	1	0.6998192409519106
253.49714331107683	1	learning	violation	4	A	12	scene	outdoor	1	0.4938631929690018
256.49709886603523	1	learning	violation	4	B	12	scene	outdoor	0	0.7659085120540112
259.4970595380292	1	learning	nonviolation	4	A	61	scene	outdoor	1	0.5238606879720464
262.4970183040714	1	learning	nonviolation	4	B	61	scene	indoor	1	0.5409836110193282
265.49696994607797	1	learning	violation	3	A	10	scene	indoor	0	0.9580400260165334
268.49693466909235	1	learning	violation	3	B	10	scene	outdoor	1	0.5730760239530355
271.49689648102503	1	learning	nonviolation	4	A	57	scene	outdoor	1	0.5121138580143452
274.4968641450396	1	learning	nonviolation	4	B	57	scene	outdoor	1	0.5691501180408522
277.4968127530301	1	learning	violation	2	A	14	scene	indoor	1	0.6161976960720494
280.49678608600516	1	learning	violation	2	B	14	scene	outdoor	1	0.516209076042287
283.49673315603286	1	learning	violation	3	A	13	scene	indoor	1	0.5032473329920322
286.496691353037	1	learning	violation	3	B	13	scene	indoor	1	0.43134046997874975
289.4966579020256	1	restudy	nonviolation	6	B	59	scene	indoor	1	0.5203468489926308
292.4966202270007	1	learning	violation	4	A	11	scene	outdoor	1	0.5403884110273793
295.4965683920309	1	learning	violation	4	B	11	scene	indoor	1	0.5504474670160562
298.49652723409235	1	restudy	nonviolation	6	B	58	scene	outdoor	1	0.6654822479467839
301.49648409802467	1	learning	nonviolation	4	A	60	scene	indoor	1	0.4695336139993742
304.49643596308306	1	learning	nonviolation	4	B	60	scene	outdoor	1	0.5305809089913964
307.49640513502527	1	restudy	nonviolation	5	B	57	scene	outdoor	1	0.5695780899841338
310.4963631340069	1	restudy	nonviolation	5	B	61	scene	indoor	1	0.5156529539963229
313.49632187304087	1	restudy	nonviolation	5	B	60	scene	outdoor	1	0.4686940009705722
316.4962900730316	1	learning	violation	4	A	9	scene	outdoor	1	0.5477209860691801
319.49623863899615	1	learning	violation	4	B	9	scene	indoor	1	0.5387719530845061
322.4962001231033	1	learning	nonviolation	2	A	63	scene	indoor	1	0.6628132920013741
325.49615797703154	1	learning	nonviolation	2	B	63	scene	indoor	1	0.7748537170700729
328.4961167260772	1	learning	violation	2	A	15	scene	outdoor	1	0.5668990080012009
331.4960737080546	1	learning	violation	2	B	15	scene	outdoor	0	0.8789392570033671
334.49603509809816	1	restudy	nonviolation	5	B	62	scene	outdoor	1	0.5189780798973516
337.49599301803386	1	learning	nonviolation	3	A	63	scene	indoor	1	0.553030441980809
340.49596436310094	1	learning	nonviolation	3	B	63	scene	indoor	1	0.7500519509194419
343.4959119490813	1	learning	violation	4	A	10	scene	indoor	1	0.6741052799625322
346.4958796680439	1	learning	violation	4	B	10	scene	outdoor	1	0.7161356150172651
349.4958289330825	1	learning	violation	4	A	13	scene	indoor	1	0.5601830219384283
352.49578826606734	1	learning	violation	4	B	13	scene	indoor	1	0.5962306449655443
355.4957468750654	1	violation	violation	5	A	12	scene	outdoor	1	0.5272701509529725
358.4957072630059	1	violation	violation	1	X	12	face	male	1	0.969304241007194
361.4956651820103	1	restudy	nonviolation	6	B	57	scene	outdoor	1	0.5423520350595936
364.49562392302323	1	learning	violation	3	A	15	scene	outdoor	1	0.8343933220021427
367.4955857880414	1	learning	violation	3	B	15	scene	outdoor	0	0.6984285260550678
370.4955427451059	1	learning	violation	3	A	14	scene	indoor	1	0.5354793899459764
373.4788264130475	1	learning	violation	3	B	14	scene	outdoor	1	0.5051893759518862
376.4787817260949	1	violation	violation	5	A	9	scene	outdoor	1	0.5672352039255202
379.47873814508796	1	violation	violation	1	X	9	face	female	1	0.5882832569768652
382.47870574903214	1	violation	violation	5	A	11	scene	outdoor	1	0.4923182460479438
385.495334279025	1	violation	violation	1	X	11	face	female	1	0.4706823830492794
388.4786193980835	1	violation	violation	5	A	10	scene	indoor	1	0.5664076129905881
391.4952553260373	1	violation	violation	1	X	10	face	male	1	0.5827671230072156
394.4785523250466	1	restudy	nonviolation	6	B	61	scene	indoor	1	0.5804698209976777
397.47850139508967	1	violation	violation	5	A	13	scene	indoor	1	0.5214529259828851
400.478463395033	1	violation	violation	1	X	13	face	female	1	0.5485566760180518
403.4784231890226	1	learning	violation	2	A	16	scene	indoor	1	0.5355995030840859
406.4783806600608	1	learning	violation	2	B	16	scene	indoor	1	0.8196427009534091
409.47833799500955	1	learning	nonviolation	2	A	64	scene	outdoor	1	0.5306859840638936
412.4782987140352	1	learning	nonviolation	2	B	64	scene	indoor	1	0.5627284080255777
415.47826181410346	1	restudy	nonviolation	6	B	62	scene	outdoor	1	0.823769697919488
418.4782150960528	1	restudy	nonviolation	6	B	60	scene	outdoor	1	0.522726790048182
421.47819944901863	1	learning	nonviolation	4	A	63	scene	indoor	1	0.5408308079931885
424.4781248260988	1	learning	nonviolation	4	B	63	scene	indoor	1	0.4768973009195179
427.4780991730513	1	restudy	violation	5	B	11	scene	indoor	1	0.5049137929454446
430.47805478901137	1	restudy	violation	5	B	10	scene	outdoor	1	0.5219841600628571
433.4780217841035	1	learning	nonviolation	3	A	64	scene	outdoor	1	0.7050157189369202
436.47797200107016	1	learning	nonviolation	3	B	64	scene	indoor	1	0.4830551609629765
439.47793047910085	1	restudy	violation	5	B	12	scene	outdoor	1	0.7640961779979989
442.4778902810067	1	restudy	violation	5	B	13	scene	indoor	1	0.63713233708404
445.47785016009584	1	learning	violation	4	A	14	scene	indoor	1	0.4951802229043096
448.47781628300436	1	learning	violation	4	B	14	scene	outdoor	1	0.5032134830253199
451.4777672550408	1	learning	violation	3	A	16	scene	indoor	1	0.506235321983695
454.4777257130481	1	learning	violation	3	B	16	scene	indoor	1	0.5363077189540489
457.47770021110773	1	learning	violation	4	A	15	scene	outdoor	1	0.4882438769564033
460.47764278005343	1	learning	violation	4	B	15	scene	outdoor	1	0.7303910539485514
463.4775982800638	1	learning	nonviolation	4	A	64	scene	outdoor	1	0.5294383460422978
466.47755921504	1	learning	nonviolation	4	B	64	scene	indoor	1	0.4844694930361584
469.47752084105736	1	restudy	violation	5	B	9	scene	indoor	1	0.5855156009783968
472.4774794951081	1	learning	violation	4	A	16	scene	indoor	1	0.5195515468949452
475.47743642609566	1	learning	violation	4	B	16	scene	indoor	1	0.5425967209739609
478.47739640309015	1	violation	violation	5	A	15	scene	outdoor	1	0.6646706899628043
481.4773645011009	1	violation	violation	1	X	15	face	male	1	0.6976762989070266
484.47731363610364	1	violation	violation	6	A	11	scene	outdoor	1	0.5037178118946031
487.4772741140332	1	violation	violation	1	Y	11	face	female	1	0.5587639129953459
490.4772380610229	1	restudy	nonviolation	5	B	64	scene	indoor	1	0.5237984820269048
493.4771967870183	1	violation	violation	5	A	16	scene	indoor	1	0.5418349549872801
496.4771490800194	1	violation	violation	1	X	16	face	female	1	0.4878903389908373
499.47711527009966	1	restudy	nonviolation	5	B	63	scene	indoor	1	0.4959210489178077
502.4770842300495	1	violation	violation	6	A	12	scene	outdoor	1	0.5279523349599913
505.4770269830478	1	violation	violation	1	Y	12	face	male	1	0.5190134369768202
508.47698526608286	1	restudy	violation	5	B	16	scene	indoor	1	0.5270428769290447
511.47694676008535	1	violation	violation	6	A	9	scene	outdoor	1	0.7380949429934844
514.4769134160597	1	violation	violation	1	Y	9	face	female	1	0.5521230900194496
517.476863428019	1	restudy	violation	6	B	12	scene	outdoor	1	0.5401751690078527
520.4768297460397	1	violation	violation	5	A	14	scene	indoor	1	0.4892033620271832
523.4767793120118	1	violation	violation	1	X	14	face	male	1	0.5162466620095074
526.4767391280038	1	violation	violation	6	A	10	scene	indoor	1	0.6083038609940559
529.4766987951007	1	violation	violation	1	Y	10	face	male	1	0.5783407769631594
532.476655784063	1	violation	violation	6	A	13	scene	indoor	1	0.5663861020002514
535.4766129140044	1	violation	violation	1	Y	13	face	female	1	0.5764345549978316
538.4765763049945	1	restudy	violation	5	B	15	scene	outdoor	1	0.6234753570752218
541.4765326780034	1	restudy	nonviolation	6	B	64	scene	indoor	1	0.5635104350512847
544.4764902180758	1	restudy	violation	6	B	13	scene	indoor	1	0.8605526859173551
547.4764585590457	1	violation	violation	6	A	16	scene	indoor	1	0.5345797709887847
550.4764103729976	1	violation	violation	1	Y	16	face	female	1	0.5136317260330543
553.4763694280991	1	restudy	violation	5	B	14	scene	outdoor	1	0.5256734699942172
556.4763272739947	1	restudy	violation	6	B	11	scene	indoor	1	0.5427220640704036
559.4762858030153	1	violation	violation	6	A	15	scene	outdoor	1	0.4757551189977676
562.4762441230705	1	violation	violation	1	Y	15	face	male	1	0.5398107449291274
565.4762143730186	1	restudy	violation	6	B	16	scene	indoor	1	0.5218267979798838
568.4761624130188	1	restudy	nonviolation	6	B	63	scene	indoor	1	0.5138825570465997
571.4761213420425	1	violation	violation	6	A	14	scene	indoor	1	0.4769246759824455
574.4760814700276	1	violation	violation	1	Y	14	face	male	1	0.6179681540234014
577.4760445170105	1	restudy	violation	6	B	10	scene	outdoor	1	0.5500016370788217
580.4760085970629	1	restudy	violation	6	B	9	scene	indoor	1	0.4840346500277519
583.4759580401005	1	restudy	violation	6	B	15	scene	outdoor	1	0.5600043259328231
586.4759116460336	1	restudy	violation	6	B	14	scene	outdoor	1	0.5081359540345147
