onset	duration	trial_type	condition	repetition	pairmate	pairID	category	subcategory	response_accuracy	response_time
13.497068664990366	1	prelearning	violation	1	B	40	scene	outdoor	1	0.7384085060330108
16.497024463955313	1	prelearning	nonviolation	1	A	85	scene	indoor	1	0.5094550740905106
19.496987889055163	1	prelearning	violation	1	B	39	scene	outdoor	1	0.5084881949005648
22.49694867094513	1	prelearning	violation	1	A	36	scene	outdoor	1	0.4975323670078069
25.513585360022265	1	prelearning	violation	1	B	35	scene	indoor	1	0.4558914839290082
28.49687567795627	1	prelearning	nonviolation	1	B	81	scene	outdoor	1	0.5366035210900009
31.496835030964576	1	prelearning	violation	1	A	37	scene	indoor	0	0.5976450690068305
34.49679635395296	1	prelearning	violation	1	A	33	scene	indoor	1	0.4566855230368674
37.49675731605385	1	prelearning	violation	1	A	34	scene	indoor	1	0.5037265159189701
40.496713413973346	1	prelearning	nonviolation	1	B	82	scene	outdoor	1	0.5877688640030101
43.49666454899125	1	prelearning	nonviolation	1	B	86	scene	indoor	1	0.6628255060641095
46.49663312896154	1	prelearning	nonviolation	1	A	81	scene	outdoor	1	0.5818499299930409
49.4965993949445	1	prelearning	nonviolation	1	A	84	scene	indoor	1	0.5908862000796944
52.496556265978136	1	prelearning	violation	1	A	38	scene	outdoor	1	0.487924242974259
55.496512735029675	1	prelearning	nonviolation	1	A	86	scene	indoor	1	0.975972582004033
58.496474880026646	1	prelearning	nonviolation	1	B	84	scene	outdoor	1	0.5480153409298509
61.49643049598672	1	prelearning	violation	1	B	38	scene	indoor	1	0.4830548720201477
64.4963961270405	1	prelearning	nonviolation	1	A	83	scene	indoor	1	0.5370899129193276
67.49635585804937	1	prelearning	nonviolation	1	A	87	scene	outdoor	1	0.385125131928362
70.49631416401827	1	prelearning	nonviolation	1	A	82	scene	outdoor	1	0.7521718399366364
73.49627459200565	1	prelearning	violation	1	B	36	scene	indoor	1	0.4822118480224162
76.4962276769802	1	prelearning	violation	1	B	37	scene	outdoor	1	0.5482570270542055
79.49619978596456	1	prelearning	violation	1	A	39	scene	outdoor	1	0.5262865850236267
82.49615006695967	1	prelearning	nonviolation	1	B	88	scene	indoor	1	0.5313374210381879
85.49611276003999	1	prelearning	violation	1	A	40	scene	outdoor	1	0.4803324199747294
88.49607214599381	1	prelearning	nonviolation	1	B	83	scene	outdoor	1	0.4654150810092688
91.49603204301093	1	prelearning	nonviolation	1	A	88	scene	outdoor	1	0.4654551949352026
94.49599253095221	1	prelearning	nonviolation	1	B	85	scene	indoor	1	0.5134970539947972
97.4959468509769	1	prelearning	violation	1	B	33	scene	indoor	1	0.4845361349871382
100.49591299903112	1	prelearning	nonviolation	1	B	87	scene	indoor	1	0.5095789399929345
103.49586916598491	1	prelearning	violation	1	A	35	scene	indoor	1	0.4606207479955629
106.49583377700763	1	prelearning	violation	1	B	34	scene	outdoor	1	0.5016557800117879
109.49578563205431	1	learning	nonviolation	2	A	81	scene	outdoor	1	0.4727091869572178
112.49574693699832	1	learning	nonviolation	2	B	81	scene	outdoor	1	0.421746029984206
115.49571629695127	1	learning	violation	2	A	33	scene	indoor	1	0.5707730050198734
118.49567011394537	1	learning	violation	2	B	33	scene	indoor	1	0.5748237119987607
121.49563624395523	1	learning	violation	2	A	34	scene	indoor	1	0.7688554209889844
124.4955821579788	1	learning	violation	2	B	34	scene	outdoor	1	0.3859092110069469
127.49554417293983	1	learning	nonviolation	2	A	82	scene	outdoor	1	0.4849504301091656
130.49551034497566	1	learning	nonviolation	2	B	82	scene	outdoor	1	0.4508970530005172
133.49547711201012	1	learning	nonviolation	2	A	83	scene	indoor	1	0.4630154570331797
136.4954181939829	1	learning	nonviolation	2	B	83	scene	outdoor	1	0.4610766329569742
139.4953754369635	1	learning	violation	3	A	34	scene	indoor	1	0.4921203820267692
142.49533424095716	1	learning	violation	3	B	34	scene	outdoor	1	0.3821618410293013
145.49529116298072	1	learning	violation	2	A	35	scene	indoor	1	0.4421983910724521
148.49525889893994	1	learning	violation	2	B	35	scene	indoor	1	0.5002384560648352
151.49521649500818	1	learning	nonviolation	2	A	84	scene	indoor	1	0.5512769710039721
154.49517606897282	1	learning	nonviolation	2	B	84	scene	outdoor	1	0.4803241799818352
157.49513006105553	1	learning	violation	2	A	36	scene	outdoor	1	0.4613729579141364
160.4950926969759	1	learning	violation	2	B	36	scene	indoor	1	0.5224022120237349
163.49505631800275	1	learning	nonviolation	3	A	82	scene	outdoor	1	0.4984364409465343
166.49501135502942	1	learning	nonviolation	3	B	82	scene	outdoor	1	0.5104857030091807
169.49496891896706	1	learning	nonviolation	3	A	81	scene	outdoor	1	0.5005313840229064
172.4949275220279	1	learning	nonviolation	3	B	81	scene	outdoor	1	0.8575770199531689
175.4948863990139	1	learning	violation	2	A	37	scene	indoor	0	0.5526137769920751
178.4948503030464	1	learning	violation	2	B	37	scene	outdoor	1	0.4376476899487898
181.494803832029	1	learning	nonviolation	3	A	84	scene	indoor	1	0.4286970340181142
184.49476412904914	1	learning	nonviolation	3	B	84	scene	outdoor	1	0.5127536539221182
187.49473077303261	1	learning	nonviolation	2	A	85	scene	indoor	1	0.4297849059803411
190.4946827649837	1	learning	nonviolation	2	B	85	scene	indoor	1	0.4938195090508089
193.4946418319596	1	learning	violation	2	A	38	scene	outdoor	1	0.9178562370361759
196.4946011280408	1	learning	violation	2	B	38	scene	indoor	1	0.4699017949169502
199.494560903986	1	learning	violation	2	A	39	scene	outdoor	1	0.4579388359561562
202.49452078295872	1	learning	violation	2	B	39	scene	outdoor	1	0.4729838470229879
205.49447735899597	1	learning	violation	2	A	40	scene	outdoor	1	0.3680086659733206
208.49444365501404	1	learning	violation	2	B	40	scene	outdoor	1	0.5440612969687209
211.49439739598893	1	learning	violation	3	A	37	scene	indoor	0	0.5251050089718774
214.49436312797482	1	learning	violation	3	B	37	scene	outdoor	1	0.4951349559705705
217.4943129690364	1	learning	violation	3	A	35	scene	indoor	1	0.4511889999266714
220.4942786879837	1	learning	violation	3	B	35	scene	indoor	1	0.4432284709764645
223.49423301499337	1	learning	violation	3	A	33	scene	indoor	1	0.5252724069869146
226.4941906200256	1	learning	violation	3	B	33	scene	indoor	1	0.5023147040046751
229.4941484760493	1	learning	violation	3	A	36	scene	outdoor	1	0.449330442934297
232.49410844803788	1	learning	violation	3	B	36	scene	indoor	1	0.4403983859810978
235.4940667259507	1	learning	nonviolation	4	A	81	scene	outdoor	1	0.5144385570893064
238.49403123394583	1	learning	nonviolation	4	B	81	scene	outdoor	1	0.5124740580795333
241.49398420599758	1	learning	nonviolation	3	A	83	scene	indoor	1	0.4625271080294624
244.4939445790369	1	learning	nonviolation	3	B	83	scene	outdoor	1	0.493567792000249
247.49390385998413	1	learning	violation	4	A	33	scene	indoor	1	0.4686028179712594
250.4938681620406	1	learning	violation	4	B	33	scene	indoor	1	0.4646462720120326
253.4938328489661	1	learning	violation	3	A	39	scene	outdoor	1	0.4806985990144312
256.49377884797286	1	learning	violation	3	B	39	scene	outdoor	1	0.4956462970003486
259.4937433919404	1	learning	nonviolation	4	A	83	scene	indoor	1	0.4237689290894195
262.4936964920489	1	learning	nonviolation	4	B	83	scene	outdoor	1	0.4508162779966369
265.4936549050035	1	learning	violation	4	A	34	scene	indoor	1	0.4738556400407106
268.4936120349448	1	learning	violation	4	B	34	scene	outdoor	1	0.4728981250664219
271.49357331194915	1	learning	nonviolation	4	A	84	scene	indoor	1	0.4539342180360109
274.4935314949835	1	learning	nonviolation	4	B	84	scene	outdoor	1	0.4879802700597793
277.4934906519484	1	learning	nonviolation	4	A	82	scene	outdoor	1	0.4930230240570381
280.4934579579858	1	learning	nonviolation	4	B	82	scene	outdoor	1	0.45105380797758704
283.4934089849703	1	learning	violation	3	A	38	scene	outdoor	1	0.443104888079688
286.49336641794065	1	learning	violation	3	B	38	scene	indoor	1	0.5831439350731671
289.49332511902315	1	learning	nonviolation	3	A	85	scene	indoor	1	0.43920979101676494
292.4932838579407	1	learning	nonviolation	3	B	85	scene	indoor	1	0.5022318160627037
295.49325263197534	1	restudy	nonviolation	5	B	81	scene	outdoor	1	0.4632569020614028
298.49320624105167	1	learning	violation	4	A	35	scene	indoor	1	0.4603086429415271
301.4931683479808	1	learning	violation	4	B	35	scene	indoor	1	0.4393430500058457
304.4931203549495	1	violation	violation	5	A	33	scene	indoor	1	0.5333982730517164
307.4930911789416	1	violation	violation	1	X	33	face	female	1	0.5014241370372474
310.49303592601785	1	learning	violation	4	A	39	scene	outdoor	1	0.5404791720211506
313.49300770496484	1	learning	violation	4	B	39	scene	outdoor	1	0.4715135850710794
316.49295073200483	1	learning	violation	4	A	36	scene	outdoor	1	0.504561668029055
319.4929157589795	1	learning	violation	4	B	36	scene	indoor	1	0.4796086340211332
322.49287254502997	1	learning	violation	4	A	37	scene	indoor	0	0.5066406779224053
325.4928321969928	1	learning	violation	4	B	37	scene	outdoor	1	0.5486431460594758
328.49278830597177	1	learning	violation	3	A	40	scene	outdoor	1	0.6157278029713779
331.4927481709746	1	learning	violation	3	B	40	scene	outdoor	1	0.5467756600119174
334.4927056239685	1	restudy	nonviolation	5	B	83	scene	outdoor	1	0.5458229030482471
337.4926650919952	1	restudy	nonviolation	5	B	84	scene	outdoor	1	0.4728577970527113
340.4926231240388	1	restudy	nonviolation	6	B	81	scene	outdoor	1	0.4788948039058596
343.49258171999827	1	violation	violation	5	A	34	scene	indoor	1	0.4299378719879314
346.49254062504036	1	violation	violation	1	X	34	face	male	1	0.49598419200629
349.49250507296534	1	restudy	nonviolation	6	B	84	scene	outdoor	1	0.6250159930204973
352.49246186902747	1	learning	violation	4	A	38	scene	outdoor	1	0.4880632529966533
355.4924178760266	1	learning	violation	4	B	38	scene	indoor	1	0.4921000309986994
358.4923832520144	1	restudy	nonviolation	6	B	83	scene	outdoor	1	0.5101446430198848
361.4923443619628	1	violation	violation	5	A	37	scene	indoor	0	0.4711754739983007
364.49230975995306	1	violation	violation	1	X	37	face	male	1	0.5242189720738679
367.4922520900145	1	learning	nonviolation	2	A	86	scene	indoor	1	0.6092720959568396
370.4922146210447	1	learning	nonviolation	2	B	86	scene	indoor	1	0.6113104219548404
373.49216801894363	1	violation	violation	5	A	35	scene	indoor	1	0.4523561910027638
376.4921275930246	1	violation	violation	1	X	35	face	female	1	0.5883217219961807
379.4920971459942	1	restudy	nonviolation	5	B	82	scene	outdoor	1	0.4973425919888541
382.4920470250072	1	learning	nonviolation	4	A	85	scene	indoor	1	0.5173953420016915
385.4920039150165	1	learning	nonviolation	4	B	85	scene	indoor	1	0.4885229059727863
388.49197221803485	1	violation	violation	5	A	38	scene	outdoor	0	0.6115510879317299
391.49192187900184	1	violation	violation	1	X	38	face	female	1	0.4606079249642789
394.49188207602134	1	restudy	nonviolation	6	B	82	scene	outdoor	1	0.7796518199611455
397.49184254696587	1	learning	violation	4	A	40	scene	outdoor	1	0.4676874580327421
400.4917981530307	1	learning	violation	4	B	40	scene	outdoor	1	0.5637294669868425
403.49175574898254	1	violation	violation	5	A	36	scene	outdoor	1	0.7107763870153576
406.4917147590313	1	violation	violation	1	X	36	face	female	1	0.5078122669365257
409.491671773023	1	restudy	violation	5	B	33	scene	indoor	1	0.5958627660293132
412.49164026894135	1	violation	violation	5	A	39	scene	outdoor	1	0.5468882760033011
415.4915911889402	1	violation	violation	1	X	39	face	male	1	0.4358543890994042
418.49154672201263	1	learning	nonviolation	2	A	87	scene	outdoor	1	0.4709859800059348
421.491508799023	1	learning	nonviolation	2	B	87	scene	indoor	1	0.4990355030167848
424.491465670988	1	restudy	nonviolation	5	B	85	scene	indoor	1	0.5340672789607197
427.4914243250387	1	learning	nonviolation	3	A	86	scene	indoor	1	0.5071041400078684
430.4913838349749	1	learning	nonviolation	3	B	86	scene	indoor	1	0.4621464210795239
433.4913483309792	1	restudy	violation	5	B	34	scene	outdoor	1	0.4611804999876768
436.4913018470397	1	restudy	nonviolation	6	B	85	scene	indoor	1	0.5022328809136525
439.4912671879865	1	violation	violation	5	A	40	scene	outdoor	1	0.4452689840691164
442.4912210840266	1	violation	violation	1	X	40	face	male	1	0.4793073049513623
445.49118866503693	1	learning	nonviolation	3	A	87	scene	outdoor	1	0.4433450649958104
448.4911366669694	1	learning	nonviolation	3	B	87	scene	indoor	1	0.8473970870254561
451.4910941109992	1	restudy	violation	5	B	38	scene	indoor	1	0.4924424010096118
454.4743761370192	1	learning	nonviolation	2	A	88	scene	outdoor	1	0.4071618230082095
457.474336904008	1	learning	nonviolation	2	B	88	scene	indoor	1	0.4661962180398405
460.4742996089626	1	restudy	violation	5	B	37	scene	outdoor	1	0.481237267027609
463.47425225097686	1	learning	nonviolation	4	A	87	scene	outdoor	1	0.4942818389972672
466.49089918099344	1	learning	nonviolation	4	B	87	scene	indoor	1	0.4336344599723816
469.4741737280273	1	learning	nonviolation	3	A	88	scene	outdoor	1	0.461281409021467
472.47412551997695	1	learning	nonviolation	3	B	88	scene	indoor	1	0.4534072650130838
475.4740942829522	1	restudy	violation	5	B	35	scene	indoor	1	0.472440543002449
478.4740576359909	1	restudy	violation	5	B	39	scene	outdoor	1	0.4834800190292299
481.47401075297967	1	violation	violation	6	A	34	scene	indoor	1	0.4585252560209483
484.4739731310401	1	violation	violation	1	Y	34	face	male	1	0.4665777479531243
487.4739280029898	1	restudy	nonviolation	5	B	87	scene	indoor	1	0.6575315960217267
490.4738849500427	1	learning	nonviolation	4	A	88	scene	outdoor	1	0.3556507119210437
493.47384603205137	1	learning	nonviolation	4	B	88	scene	indoor	1	0.4866911598946899
496.47381046495866	1	restudy	violation	5	B	36	scene	indoor	1	0.652732236078009
499.47377129702363	1	violation	violation	6	A	38	scene	outdoor	1	0.3867745100287721
502.4737195769558	1	violation	violation	1	Y	38	face	female	1	0.5988276310963556
505.47368863399606	1	violation	violation	6	A	33	scene	indoor	1	0.6948573320405558
508.4736422309652	1	violation	violation	1	Y	33	face	female	1	0.4818948659813032
511.4735970220063	1	learning	nonviolation	4	A	86	scene	indoor	1	0.4789470669347793
514.4735642550513	1	learning	nonviolation	4	B	86	scene	indoor	1	0.5650131249567494
517.4735150439665	1	restudy	violation	5	B	40	scene	outdoor	1	0.5890293780248612
520.473475174047	1	restudy	nonviolation	6	B	87	scene	indoor	1	0.4570694819558412
523.4734343709424	1	violation	violation	6	A	37	scene	indoor	0	0.5651097100926563
526.4733935210388	1	violation	violation	1	Y	37	face	male	1	0.5131548319477588
529.473352481029	1	restudy	violation	6	B	33	scene	indoor	1	0.5031880249734968
532.4733079939615	1	restudy	nonviolation	5	B	88	scene	indoor	1	0.4352407340193167
535.4732677730499	1	violation	violation	6	A	40	scene	outdoor	1	0.4912780419690535
538.4732262289617	1	violation	violation	1	Y	40	face	male	1	0.6973249029833823
541.4731842679903	1	violation	violation	6	A	35	scene	indoor	1	0.4423613080289215
544.4731459999457	1	violation	violation	1	Y	35	face	female	1	0.4154019800480455
547.4731091669528	1	restudy	violation	6	B	34	scene	outdoor	1	0.5224428600631654
550.4730664830422	1	restudy	violation	6	B	38	scene	indoor	1	0.40547893091570586
553.4730203789659	1	restudy	violation	6	B	35	scene	indoor	1	0.5005337010370567
556.4729804339586	1	violation	violation	6	A	36	scene	outdoor	1	0.3885692150797695
559.4729372030124	1	violation	violation	1	Y	36	face	female	1	0.4676067199325189
562.4728969749995	1	violation	violation	6	A	39	scene	outdoor	1	0.49364990205504
565.4728576160269	1	violation	violation	1	Y	39	face	male	1	0.4386903629638255
568.4728151890449	1	restudy	nonviolation	5	B	86	scene	indoor	1	0.4817338639404625
571.4727721039671	1	restudy	violation	6	B	37	scene	outdoor	1	0.430775351007469
574.4727523759939	1	restudy	violation	6	B	36	scene	indoor	1	0.3748217569664121
577.4726885790004	1	restudy	nonviolation	6	B	86	scene	indoor	1	0.4848745530471206
580.4726637189742	1	restudy	violation	6	B	39	scene	outdoor	1	0.5168362930417061
583.4726065179566	1	restudy	violation	6	B	40	scene	outdoor	1	0.5559438470518216
586.472579426947	1	restudy	nonviolation	6	B	88	scene	indoor	1	0.33797244203742594
