onset	duration	trial_type	reward_condition	condition	repetition	pairmate	pairID	response_accuracy	response_time
13.51778082596138	2.5	scene	neutral	nonviolation	3	A	62	1	0.6992984998505563
16.01778082596138	3.0	feedback	n/a	n/a	n/a	n/a	n/a	n/a	n/a
19.501031319843605	2.5	scene	neutral	violation	3	A	36	0	1.1191035809461027
22.00103131984361	3.0	feedback	n/a	n/a	n/a	n/a	n/a	n/a	n/a
25.50096565485001	2.5	scene	neutral	violation	3	A	46	1	0.6201627929694951
28.00096565485001	3.0	feedback	n/a	n/a	n/a	n/a	n/a	n/a	n/a
31.500872718868774	2.5	scene	neutral	nonviolation	3	A	71	1	1.0302629789803175
34.00087271886878	3.0	feedback	n/a	n/a	n/a	n/a	n/a	n/a	n/a
37.50079057784751	2.5	scene	neutral	nonviolation	3	A	63	1	1.7253443361259997
40.00079057784751	3.0	feedback	n/a	n/a	n/a	n/a	n/a	n/a	n/a
43.50072175683454	2.5	scene	neutral	nonviolation	3	A	54	1	0.7323309991043061
46.00072175683454	3.0	feedback	n/a	n/a	n/a	n/a	n/a	n/a	n/a
49.50063058082014	2.5	scene	reward	nonviolation	3	A	69	1	0.7435020960401744
52.00063058082014	3.0	feedback	n/a	n/a	n/a	n/a	n/a	n/a	n/a
55.5005639209412	2.5	scene	reward	violation	3	A	24	1	0.8645717620383948
58.0005639209412	3.0	feedback	n/a	n/a	n/a	n/a	n/a	n/a	n/a
61.50537494779565	2.5	scene	neutral	violation	3	A	30	1	0.7657667021267116
64.00537494779564	3.0	feedback	n/a	n/a	n/a	n/a	n/a	n/a	n/a
67.5049318068195	2.5	scene	reward	nonviolation	3	A	52	1	0.7151369270868599
70.0049318068195	3.0	feedback	n/a	n/a	n/a	n/a	n/a	n/a	n/a
73.50032294588162	2.5	scene	neutral	violation	3	A	31	1	0.6518188300542533
76.00032294588162	3.0	feedback	n/a	n/a	n/a	n/a	n/a	n/a	n/a
79.50024149077944	2.5	scene	reward	nonviolation	3	A	75	1	0.8178998441435397
82.00024149077944	3.0	feedback	n/a	n/a	n/a	n/a	n/a	n/a	n/a
85.50016929698177	2.5	scene	reward	violation	3	A	27	1	0.7389731698203832
88.00016929698177	3.0	feedback	n/a	n/a	n/a	n/a	n/a	n/a	n/a
91.50008505885486	2.5	scene	neutral	violation	3	A	48	1	1.164058794034645
94.00008505885486	3.0	feedback	n/a	n/a	n/a	n/a	n/a	n/a	n/a
97.50000095996073	2.5	scene	reward	violation	3	A	26	1	0.8311432399787009
100.00000095996073	3.0	feedback	n/a	n/a	n/a	n/a	n/a	n/a	n/a
103.49992597196251	2.5	scene	reward	violation	3	A	45	1	0.9572179778479041
105.99992597196251	3.0	feedback	n/a	n/a	n/a	n/a	n/a	n/a	n/a
109.50415084278211	2.5	scene	reward	nonviolation	3	A	88	1	0.7349969770293683
112.00415084278211	3.0	feedback	n/a	n/a	n/a	n/a	n/a	n/a	n/a
115.49982678680679	2.5	scene	reward	nonviolation	3	A	60	1	1.2713174789678303
117.99982678680679	3.0	feedback	n/a	n/a	n/a	n/a	n/a	n/a	n/a
121.50240855081938	2.5	scene	neutral	violation	3	A	22	1	0.8157635680399835
124.00240855081938	3.0	feedback	n/a	n/a	n/a	n/a	n/a	n/a	n/a
127.49961299099961	2.5	scene	reward	nonviolation	3	A	93	1	0.7435319398064166
129.9996129909996	3.0	feedback	n/a	n/a	n/a	n/a	n/a	n/a	n/a
133.49952790490352	2.5	scene	neutral	nonviolation	3	A	96	1	0.7296175218652934
135.99952790490352	3.0	feedback	n/a	n/a	n/a	n/a	n/a	n/a	n/a
139.49945877795108	2.5	scene	neutral	violation	3	A	11	1	0.8026958690024912
141.99945877795108	3.0	feedback	n/a	n/a	n/a	n/a	n/a	n/a	n/a
145.49936212599275	2.5	scene	neutral	nonviolation	3	A	94	0	1.0597856019157916
147.99936212599275	3.0	feedback	n/a	n/a	n/a	n/a	n/a	n/a	n/a
151.4992853458971	2.5	scene	neutral	nonviolation	3	A	81	1	0.6568723039235921
153.9992853458971	3.0	feedback	n/a	n/a	n/a	n/a	n/a	n/a	n/a
157.49992238986306	2.5	scene	neutral	violation	3	A	23	1	1.8702291019726545
159.99992238986306	3.0	feedback	n/a	n/a	n/a	n/a	n/a	n/a	n/a
163.49912648694593	2.5	scene	reward	nonviolation	3	A	65	1	0.8580227459315211
165.99912648694593	3.0	feedback	n/a	n/a	n/a	n/a	n/a	n/a	n/a
169.49903915193863	2.5	scene	neutral	nonviolation	3	A	68	1	1.0611130360048264
171.99903915193863	3.0	feedback	n/a	n/a	n/a	n/a	n/a	n/a	n/a
175.49895905097947	2.5	scene	reward	nonviolation	3	A	57	1	0.6581917258445174
177.99895905097947	3.0	feedback	n/a	n/a	n/a	n/a	n/a	n/a	n/a
181.49887812579982	2.5	scene	reward	nonviolation	3	A	85	1	0.6822775201871991
183.99887812579982	3.0	feedback	n/a	n/a	n/a	n/a	n/a	n/a	n/a
187.498795916792	2.5	scene	neutral	violation	3	A	2	1	0.8063552440144122
189.998795916792	3.0	feedback	n/a	n/a	n/a	n/a	n/a	n/a	n/a
193.4999964998569	2.5	scene	neutral	nonviolation	3	A	73	1	0.7461060890927911
195.9999964998569	3.0	feedback	n/a	n/a	n/a	n/a	n/a	n/a	n/a
199.4986366587691	2.5	scene	reward	violation	3	A	42	1	0.6985060060396789
201.9986366587691	3.0	feedback	n/a	n/a	n/a	n/a	n/a	n/a	n/a
205.49855848588052	2.5	scene	reward	violation	3	A	37	1	0.9326039310544728
207.99855848588052	3.0	feedback	n/a	n/a	n/a	n/a	n/a	n/a	n/a
211.49865465983746	2.5	scene	reward	nonviolation	3	A	53	1	0.8735018521547318
213.99865465983746	3.0	feedback	n/a	n/a	n/a	n/a	n/a	n/a	n/a
217.49839706788768	2.5	scene	reward	violation	3	A	3	1	1.0757592138834298
219.99839706788768	3.0	feedback	n/a	n/a	n/a	n/a	n/a	n/a	n/a
223.4983136209194	2.5	scene	neutral	violation	3	A	1	1	0.9148470440413804
225.9983136209194	3.0	feedback	n/a	n/a	n/a	n/a	n/a	n/a	n/a
229.49823425081559	2.5	scene	reward	violation	3	A	14	1	0.7869231461081654
231.99823425081559	3.0	feedback	n/a	n/a	n/a	n/a	n/a	n/a	n/a
235.498152959859	2.5	scene	reward	nonviolation	3	A	90	1	0.940004700096324
237.998152959859	3.0	feedback	n/a	n/a	n/a	n/a	n/a	n/a	n/a
241.4980778337922	2.5	scene	reward	violation	3	A	15	1	0.6360823600552976
243.9980778337922	3.0	feedback	n/a	n/a	n/a	n/a	n/a	n/a	n/a
247.49799581989646	2.5	scene	neutral	nonviolation	3	A	79	1	0.8171695780474693
249.99799581989646	3.0	feedback	n/a	n/a	n/a	n/a	n/a	n/a	n/a
253.49791863886642	2.5	scene	reward	violation	3	A	8	1	0.8122445549815893
255.99791863886642	3.0	feedback	n/a	n/a	n/a	n/a	n/a	n/a	n/a
259.49782927683555	2.5	scene	neutral	nonviolation	3	A	83	1	1.5823045370634643
261.99782927683555	3.0	feedback	n/a	n/a	n/a	n/a	n/a	n/a	n/a
265.4977510608733	2.5	scene	reward	violation	3	A	40	1	0.6993293340783566
267.9977510608733	3.0	feedback	n/a	n/a	n/a	n/a	n/a	n/a	n/a
271.4976664457936	2.5	scene	reward	violation	3	A	17	1	0.6534106479957701
273.9976664457936	3.0	feedback	n/a	n/a	n/a	n/a	n/a	n/a	n/a
277.49759245477617	2.5	scene	neutral	violation	3	A	16	1	0.6075771981850266
279.99759245477617	3.0	feedback	n/a	n/a	n/a	n/a	n/a	n/a	n/a
283.49750138889067	2.5	scene	neutral	nonviolation	3	A	51	1	0.8096633478999138
285.99750138889067	3.0	feedback	n/a	n/a	n/a	n/a	n/a	n/a	n/a
289.49743305682205	2.5	scene	reward	nonviolation	3	A	78	1	0.6637327619828284
291.99743305682205	3.0	feedback	n/a	n/a	n/a	n/a	n/a	n/a	n/a
295.4973446778022	2.5	scene	neutral	violation	3	A	38	1	0.9358243581373245
297.9973446778022	3.0	feedback	n/a	n/a	n/a	n/a	n/a	n/a	n/a
301.4972624038346	2.5	scene	neutral	nonviolation	4	A	73	1	0.64290737407282
303.9972624038346	3.0	feedback	n/a	n/a	n/a	n/a	n/a	n/a	n/a
307.4971834227908	2.5	scene	neutral	violation	4	A	23	1	0.843989989021793
309.9971834227908	3.0	feedback	n/a	n/a	n/a	n/a	n/a	n/a	n/a
313.4971058508381	2.5	scene	reward	violation	4	A	15	1	0.7429839370306581
315.9971058508381	3.0	feedback	n/a	n/a	n/a	n/a	n/a	n/a	n/a
319.49702070490457	2.5	scene	reward	violation	4	A	24	1	0.6651507138740271
321.99702070490457	3.0	feedback	n/a	n/a	n/a	n/a	n/a	n/a	n/a
325.49694229499437	2.5	scene	reward	violation	4	A	3	1	0.6212498049717396
327.99694229499437	3.0	feedback	n/a	n/a	n/a	n/a	n/a	n/a	n/a
331.49685811088415	2.5	scene	reward	nonviolation	4	A	93	1	0.6303146618884057
333.99685811088415	3.0	feedback	n/a	n/a	n/a	n/a	n/a	n/a	n/a
337.4967756168917	2.5	scene	neutral	violation	4	A	1	1	0.8973997980356216
339.9967756168917	3.0	feedback	n/a	n/a	n/a	n/a	n/a	n/a	n/a
343.49670452577993	2.5	scene	reward	nonviolation	4	A	90	1	1.2004233491607008
345.99670452577993	3.0	feedback	n/a	n/a	n/a	n/a	n/a	n/a	n/a
349.4966127779335	2.5	scene	neutral	violation	4	A	48	1	0.7945650930050759
351.9966127779335	3.0	feedback	n/a	n/a	n/a	n/a	n/a	n/a	n/a
355.49653697991744	2.5	scene	reward	violation	4	A	45	1	0.7366405539214611
357.99653697991744	3.0	feedback	n/a	n/a	n/a	n/a	n/a	n/a	n/a
361.4964521699585	2.5	scene	reward	violation	4	A	8	1	1.0967288548126817
363.9964521699585	3.0	feedback	n/a	n/a	n/a	n/a	n/a	n/a	n/a
367.49638081993913	2.5	scene	reward	nonviolation	4	A	65	1	0.8538020299747586
369.99638081993913	3.0	feedback	n/a	n/a	n/a	n/a	n/a	n/a	n/a
373.4962888017763	2.5	scene	neutral	violation	4	A	36	1	1.908886819146573
375.9962888017763	3.0	feedback	n/a	n/a	n/a	n/a	n/a	n/a	n/a
379.4962029408198	2.5	scene	neutral	violation	4	A	46	1	0.6769773801788688
381.9962029408198	3.0	feedback	n/a	n/a	n/a	n/a	n/a	n/a	n/a
385.49612567177974	2.5	scene	reward	nonviolation	4	A	52	1	0.725050917128101
387.99612567177974	3.0	feedback	n/a	n/a	n/a	n/a	n/a	n/a	n/a
391.49605601676734	2.5	scene	reward	nonviolation	4	A	57	1	0.794128597015515
393.99605601676734	3.0	feedback	n/a	n/a	n/a	n/a	n/a	n/a	n/a
397.4959719139151	2.5	scene	neutral	nonviolation	4	A	62	1	1.1092098208609968
399.9959719139151	3.0	feedback	n/a	n/a	n/a	n/a	n/a	n/a	n/a
403.49588291486725	2.5	scene	neutral	nonviolation	4	A	83	1	2.2143046080600466
405.99588291486725	3.0	feedback	n/a	n/a	n/a	n/a	n/a	n/a	n/a
409.49583875387907	2.5	scene	neutral	nonviolation	4	A	63	1	1.0263502120506018
411.99583875387907	3.0	feedback	n/a	n/a	n/a	n/a	n/a	n/a	n/a
415.4957200537901	2.5	scene	reward	nonviolation	4	A	69	0	1.838458543177694
417.9957200537901	3.0	feedback	n/a	n/a	n/a	n/a	n/a	n/a	n/a
421.49564024084253	2.5	scene	reward	violation	4	A	27	1	0.7125396970659494
423.99564024084253	3.0	feedback	n/a	n/a	n/a	n/a	n/a	n/a	n/a
427.4955668267794	2.5	scene	neutral	nonviolation	4	A	81	1	1.800620659021661
429.9955668267794	3.0	feedback	n/a	n/a	n/a	n/a	n/a	n/a	n/a
433.47881551994936	2.5	scene	reward	nonviolation	4	A	85	1	0.6603679440449923
435.97881551994936	3.0	feedback	n/a	n/a	n/a	n/a	n/a	n/a	n/a
439.4787324569188	2.5	scene	neutral	nonviolation	4	A	68	1	0.7134599420242012
441.9787324569188	3.0	feedback	n/a	n/a	n/a	n/a	n/a	n/a	n/a
445.4786476078443	2.5	scene	neutral	violation	4	A	16	1	0.6625424269586802
447.9786476078443	3.0	feedback	n/a	n/a	n/a	n/a	n/a	n/a	n/a
451.47857062285766	2.5	scene	neutral	nonviolation	4	A	51	1	0.5746184289455414
453.97857062285766	3.0	feedback	n/a	n/a	n/a	n/a	n/a	n/a	n/a
457.4785001177806	2.5	scene	neutral	nonviolation	4	A	94	1	1.2306916362140328
459.9785001177806	3.0	feedback	n/a	n/a	n/a	n/a	n/a	n/a	n/a
463.47841252083884	2.5	scene	neutral	violation	4	A	38	1	0.7327779140323399
465.97841252083884	3.0	feedback	n/a	n/a	n/a	n/a	n/a	n/a	n/a
469.4783180837985	2.5	scene	reward	violation	4	A	14	1	0.6928765731863678
471.9783180837985	3.0	feedback	n/a	n/a	n/a	n/a	n/a	n/a	n/a
475.47823705081834	2.5	scene	reward	violation	4	A	26	1	0.6959540289826691
477.97823705081834	3.0	feedback	n/a	n/a	n/a	n/a	n/a	n/a	n/a
481.4781562399585	2.5	scene	neutral	nonviolation	4	A	71	1	0.6470331829041243
483.9781562399585	3.0	feedback	n/a	n/a	n/a	n/a	n/a	n/a	n/a
487.478102206951	2.5	scene	neutral	violation	4	A	11	1	0.8240950079634786
489.978102206951	3.0	feedback	n/a	n/a	n/a	n/a	n/a	n/a	n/a
493.4780133888125	2.5	scene	reward	nonviolation	4	A	78	1	0.67518061818555
495.9780133888125	3.0	feedback	n/a	n/a	n/a	n/a	n/a	n/a	n/a
499.47792539279914	2.5	scene	reward	nonviolation	4	A	88	1	0.6932659700978547
501.97792539279914	3.0	feedback	n/a	n/a	n/a	n/a	n/a	n/a	n/a
505.47783506382257	2.5	scene	neutral	violation	4	A	22	1	0.5763584319502115
507.97783506382257	3.0	feedback	n/a	n/a	n/a	n/a	n/a	n/a	n/a
511.47776126279496	2.5	scene	reward	violation	4	A	17	1	0.6193525611888617
513.9777612627951	3.0	feedback	n/a	n/a	n/a	n/a	n/a	n/a	n/a
517.4824949048925	2.5	scene	reward	violation	4	A	42	1	0.5146229129750282
519.9824949048925	3.0	feedback	n/a	n/a	n/a	n/a	n/a	n/a	n/a
523.4775932389311	2.5	scene	neutral	nonviolation	4	A	54	1	0.816603576997295
525.9775932389311	3.0	feedback	n/a	n/a	n/a	n/a	n/a	n/a	n/a
529.4775187519845	2.5	scene	neutral	nonviolation	4	A	79	1	0.8386803418397903
531.9775187519845	3.0	feedback	n/a	n/a	n/a	n/a	n/a	n/a	n/a
535.481938457815	2.5	scene	reward	violation	4	A	40	1	0.9172585969790816
537.981938457815	3.0	feedback	n/a	n/a	n/a	n/a	n/a	n/a	n/a
541.4814467357937	2.5	scene	reward	nonviolation	4	A	53	1	0.6597521670628339
543.9814467357937	3.0	feedback	n/a	n/a	n/a	n/a	n/a	n/a	n/a
547.4809708078392	2.5	scene	neutral	nonviolation	4	A	96	1	0.6752258299384266
549.9809708078392	3.0	feedback	n/a	n/a	n/a	n/a	n/a	n/a	n/a
553.4804818539415	2.5	scene	neutral	violation	4	A	30	1	0.6387238558381796
555.9804818539415	3.0	feedback	n/a	n/a	n/a	n/a	n/a	n/a	n/a
559.4771167028231	2.5	scene	neutral	violation	4	A	31	1	0.6600817530415952
561.9771167028231	3.0	feedback	n/a	n/a	n/a	n/a	n/a	n/a	n/a
565.4770387418102	2.5	scene	reward	nonviolation	4	A	75	1	0.5531611060723662
567.9770387418102	3.0	feedback	n/a	n/a	n/a	n/a	n/a	n/a	n/a
571.4769525579178	2.5	scene	neutral	violation	4	A	2	1	0.6302560348995029
573.9769525579178	3.0	feedback	n/a	n/a	n/a	n/a	n/a	n/a	n/a
577.4768747747876	2.5	scene	reward	violation	4	A	37	1	0.6523311121854931
579.9768747747876	3.0	feedback	n/a	n/a	n/a	n/a	n/a	n/a	n/a
583.4767907788046	2.5	scene	reward	nonviolation	4	A	60	1	0.6064134491607547
585.9767907788046	3.0	feedback	n/a	n/a	n/a	n/a	n/a	n/a	n/a
