onset	duration	trial_type	subcategory	response_accuracy	response_time
13.511508282274008	0.5	object	manmade	1	0.6299451682716608
15.011486220173538	0.5	object	manmade	1	0.40295636281371117
16.51146658230573	0.5	object	manmade	1	0.48799567110836506
18.011449453420937	0.5	object	natural	1	0.3769221277907491
19.511429014615715	0.5	object	manmade	1	0.4060227554291487
21.01140987779945	0.5	object	natural	1	0.3650351595133543
22.511387392878532	0.5	object	natural	1	0.38407435081899166
24.01137024909258	0.5	object	manmade	0	0.4190781805664301
25.511349407956004	0.5	object	natural	1	0.6021811058744788
27.011330787092447	0.5	object	natural	1	0.6951163550838828
43.51111156120896	0.5	face	female	1	0.4283322971314192
45.011091796681285	0.5	face	female	1	0.331354902125895
46.51107151992619	0.5	face	male	1	0.3313778406009078
48.01105189230293	0.5	face	male	1	0.3434014143422246
49.51103254035115	0.5	face	female	1	0.5043628802523017
51.01101228967309	0.5	face	male	1	0.4394464725628495
52.51099161244929	0.5	face	female	1	0.3904571505263448
54.010972425341606	0.5	face	male	1	0.44447402004152536
55.51095117256045	0.5	face	male	1	0.32941722869873047
57.01093174517155	0.5	face	female	1	0.3295253636315465
73.51071556378156	0.5	scene	indoor	1	0.41173906717449427
75.01069383975118	0.5	scene	indoor	1	0.3667676402255893
76.51068111043423	0.5	scene	outdoor	1	0.3197772866114974
78.01065467018634	0.5	scene	indoor	1	0.3897950975224376
79.51063189376146	0.5	scene	indoor	1	0.40968357026576996
81.01061473693699	0.5	scene	indoor	1	0.4328488204628229
82.51059465482831	0.5	scene	outdoor	1	0.35586780309677124
84.01057465933263	0.5	scene	outdoor	1	0.5629571489989758
85.51055497583002	0.5	scene	outdoor	1	0.5209292313084006
87.01054374873638	0.5	scene	outdoor	1	0.6199131170287728
103.49364771973342	0.5	scene	outdoor	1	0.3768168594688177
104.99362761806697	0.5	scene	indoor	1	0.4387656366452575
106.49369138199836	0.5	scene	indoor	1	0.4337664218619466
107.99358740728348	0.5	scene	indoor	1	0.41587175615131855
109.51023676432669	0.5	scene	indoor	1	0.4282226515933871
110.99355056229979	0.5	scene	outdoor	1	0.33990524522960186
112.49352763220668	0.5	scene	outdoor	1	0.36894051264971495
113.99351220112294	0.5	scene	outdoor	1	0.369954408146441
115.49348930828273	0.5	scene	indoor	1	0.4100135248154402
116.99346725735813	0.5	scene	outdoor	1	0.47299674432724714
133.4932518657297	0.5	scene	outdoor	1	0.6041357358917594
134.99323189537972	0.5	scene	indoor	1	0.5122098093852401
136.49321644194424	0.5	scene	outdoor	1	0.5532545046880841
137.99318956583738	0.5	scene	indoor	1	0.5392713379114866
139.4931722106412	0.5	scene	indoor	1	0.5072976024821401
140.99315463285893	0.5	scene	outdoor	1	0.5012081619352102
142.49313251115382	0.5	scene	outdoor	1	0.319236165843904
143.99313354026526	0.5	scene	indoor	1	0.4893256854265928
145.49309298954904	0.5	scene	indoor	1	0.5023669693619013
146.99307297635823	0.5	scene	outdoor	1	0.3714693309739232
163.49285356886685	0.5	object	natural	1	0.5265958607196808
164.99283573962748	0.5	object	manmade	1	0.4306329935789108
166.49281502887607	0.5	object	natural	1	0.45665341429412365
167.99279200006276	0.5	object	manmade	1	0.47767030727118254
169.49277410190552	0.5	object	manmade	1	0.38671889528632164
170.9927542200312	0.5	object	natural	1	0.33570750802755356
172.4927341658622	0.5	object	natural	1	0.36874058842658997
173.99271236453205	0.5	object	manmade	1	0.4877518964931369
175.49269434902817	0.5	object	manmade	1	0.38477688282728195
176.99267430230975	0.5	object	natural	1	0.49879947677254677
193.49245600495487	0.5	object	manmade	1	0.4300134079530835
194.99243512377143	0.5	object	natural	1	0.37201661616563797
196.49241683725268	0.5	object	natural	1	0.38496934808790684
197.9923955220729	0.5	object	natural	1	0.36107663717120886
199.4923736108467	0.5	object	manmade	1	0.3921091314405203
200.99235656671226	0.5	object	natural	1	0.4251135466620326
202.4923343397677	0.5	object	natural	1	0.5161391282454133
203.99231617804617	0.5	object	manmade	1	0.33915122132748365
205.4922965047881	0.5	object	manmade	1	0.40817374736070633
206.9922763602808	0.5	object	manmade	1	0.4430569401010871
223.49205471482128	0.5	scene	outdoor	1	0.3714175671339035
224.99203574936837	0.5	scene	indoor	1	0.3634404959157109
226.49650786817074	0.5	scene	indoor	1	0.3189849266782403
227.99199779890478	0.5	scene	outdoor	1	0.49848563969135284
229.49197820294648	0.5	scene	outdoor	1	0.3284953264519572
230.99195808917284	0.5	scene	indoor	1	0.3705225083976984
232.4919382929802	0.5	scene	indoor	1	0.35753962863236666
233.99191646743566	0.5	scene	indoor	1	0.3785576829686761
235.49189847987145	0.5	scene	outdoor	1	0.32857620157301426
236.99187873024493	0.5	scene	outdoor	1	0.3296709544956684
253.49165984615684	0.5	face	male	1	0.4438161514699459
254.99163980223238	0.5	face	male	1	0.3428354663774371
256.4948936328292	0.5	face	female	1	0.3145796451717615
257.9916032683104	0.5	face	female	1	0.3927360586822033
259.4915779782459	0.5	face	female	1	0.41889818850904703
260.9915601918474	0.5	face	female	1	0.5858948603272438
262.4915405185893	0.5	face	male	1	0.3649382656440139
263.99152053520083	0.5	face	female	1	0.4649595841765404
265.4915006393567	0.5	face	male	1	0.33397553488612175
266.99147839378566	0.5	face	male	1	0.4420066010206938
283.4912612400949	0.5	object	manmade	1	0.49922407977283
284.9912415603176	0.5	object	natural	1	0.3902378473430872
286.4935126788914	0.5	object	manmade	1	0.4109653476625681
287.99120168667287	0.5	object	natural	1	0.44225214421749115
289.49118044693023	0.5	object	natural	0	0.42930325865745544
290.991160325706	0.5	object	manmade	1	0.41934170108288527
292.4911402668804	0.5	object	manmade	1	0.48234680853784084
293.99112361110747	0.5	object	natural	1	0.6293378258123994
295.4911018582061	0.5	object	manmade	1	0.44638654217123985
296.9910822371021	0.5	object	natural	1	0.5473208529874682
313.4908609353006	0.5	face	male	1	0.45163234788924456
314.99084260314703	0.5	face	female	1	0.3836490362882614
316.4918970633298	0.5	face	female	1	0.36862015165388584
317.9908028980717	0.5	face	male	1	0.29968674667179585
319.4907823847607	0.5	face	female	1	0.4426166648045182
320.9907629676163	0.5	face	female	1	0.39872544072568417
322.4907430773601	0.5	face	male	1	0.34474828746169806
323.990721443668	0.5	face	male	1	0.37776497565209866
325.49070359487087	0.5	face	male	1	0.31878050323575735
326.9906818419695	0.5	face	female	1	0.30287596490234137
343.49046383053064	0.5	scene	outdoor	1	0.38603766076266766
344.9904444105923	0.5	scene	outdoor	1	0.3951151352375746
346.49042491521686	0.5	scene	outdoor	1	0.3589888857677579
347.9904024330899	0.5	scene	indoor	1	0.342083009891212
349.49038354400545	0.5	scene	outdoor	1	0.489110074006021
350.99036385770887	0.5	scene	indoor	1	0.47012635320425034
352.4903429374099	0.5	scene	indoor	1	0.3760678879916668
353.9903237298131	0.5	scene	indoor	1	0.3591076107695699
355.4903030274436	0.5	scene	indoor	1	0.3361656256020069
356.9902847716585	0.5	scene	outdoor	1	0.4672147613018751
373.4900655047968	0.5	face	female	1	0.4403644958510995
374.9900453956798	0.5	face	male	1	0.3494478240609169
376.4900261191651	0.5	face	female	1	0.3953913077712059
377.9900046540424	0.5	face	male	1	0.4074950832873583
379.4899835670367	0.5	face	female	1	0.5085118366405368
380.98996556643397	0.5	face	female	1	0.37452932819724083
382.48994491808116	0.5	face	female	1	0.46946531627327204
383.98992627486587	0.5	face	male	1	0.3315671235322952
385.48990459926426	0.5	face	male	1	0.34751989785581827
386.9898866331205	0.5	face	male	1	0.46260915230959654
403.4896668922156	0.5	face	male	1	0.4097512001171708
404.9896472208202	0.5	face	male	1	0.3398497849702835
406.48962547816336	0.5	face	male	1	0.3648682488128543
407.9896070100367	0.5	face	female	1	0.3578917756676674
409.4895874345675	0.5	face	female	1	0.34993146173655987
410.9895646004006	0.5	face	female	1	0.39693133998662233
412.4895479613915	0.5	face	male	1	0.425829840824008
413.9895272497088	0.5	face	female	1	0.38997133914381266
415.48950814828277	0.5	face	male	1	0.4620101088657975
416.98949075862765	0.5	face	female	1	0.41200443636626005
433.48926845379174	0.5	object	manmade	1	0.4022341500967741
434.98924761638045	0.5	object	manmade	1	0.5702509433031082
436.4892291231081	0.5	object	manmade	1	0.5942672500386834
437.98920940235257	0.5	object	natural	1	0.4232701566070318
439.4891872527078	0.5	object	natural	1	0.5362914130091667
440.98916980810463	0.5	object	natural	1	0.5261904699727893
442.48915076069534	0.5	object	natural	1	0.5993493432179093
443.98912775237113	0.5	object	manmade	1	0.5173762366175652
445.48910921718925	0.5	object	natural	1	0.43939719814807177
446.9890906410292	0.5	object	manmade	1	0.5023108627647161
