onset	duration	trial_type	condition	repetition	pairmate	pairID	category	subcategory	response_accuracy	response_time
13.514722482999787	1	postlearning	violation	2	n/a	3	face	female	1	0.5087558190571144
16.51468865503557	1	postlearning	violation	2	n/a	36	face	male	1	0.41580973903182894
19.514644291019064	1	postlearning	violation	2	n/a	18	face	female	1	0.5318437659880146
22.51460955897346	1	postlearning	violation	2	n/a	38	face	female	1	0.521887700073421
25.51456566702109	1	postlearning	violation	2	n/a	16	face	male	1	0.4149198189843446
28.49786577699706	1	postlearning	violation	2	n/a	24	face	male	1	0.5335410060361028
31.497825567959808	1	postlearning	violation	2	n/a	43	face	female	1	0.5296751860296354
34.497781482990824	1	postlearning	violation	2	n/a	37	face	female	1	0.4997153980657458
37.49773619195912	1	postlearning	violation	2	n/a	37	face	female	1	0.6497635330306366
40.497709369054064	1	postlearning	violation	2	n/a	15	face	male	1	0.4037870059255511
43.49766862904654	1	postlearning	violation	2	n/a	19	face	male	1	0.5027611409313977
46.497625665972	1	postlearning	violation	2	n/a	14	face	female	1	0.4588571300264448
49.49758923996706	1	postlearning	violation	2	n/a	4	face	female	1	0.4159095850773156
52.49755521398038	1	postlearning	violation	2	n/a	48	face	male	1	0.4259402720490471
55.49751400097739	1	postlearning	violation	2	n/a	1	face	male	1	0.4489866259973496
58.49747848906554	1	postlearning	violation	2	n/a	3	face	female	1	0.5120122779626399
61.49743488500826	1	postlearning	violation	2	n/a	47	face	male	1	0.4060534109594301
64.4973985509714	1	postlearning	violation	2	n/a	22	face	female	1	0.5301160160452127
67.49736115697307	1	postlearning	violation	2	n/a	46	face	female	1	0.4530819139908999
70.49732258997393	1	postlearning	violation	2	n/a	23	face	female	1	0.5321798659861088
73.49728411796968	1	postlearning	violation	2	n/a	47	face	male	1	0.5332210310734808
76.49724458903073	1	postlearning	violation	2	n/a	23	face	female	1	0.4732626900076866
79.49720817501657	1	postlearning	violation	2	n/a	45	face	female	1	0.39727737696375703
82.49716486397666	1	postlearning	violation	2	n/a	33	face	male	1	0.5083027540240437
85.49712720199022	1	postlearning	violation	2	n/a	13	face	female	1	0.4033651030622423
88.4970916149905	1	postlearning	violation	2	n/a	12	face	female	0	0.5183210449758917
91.49705179804005	1	postlearning	violation	2	n/a	31	face	male	1	0.3934475820278749
94.4970116240438	1	postlearning	violation	2	n/a	9	face	male	1	0.5124042090028524
97.49697362899315	1	postlearning	violation	2	n/a	25	face	female	1	0.3814810189651325
100.49693503696473	1	postlearning	violation	2	n/a	11	face	male	1	0.5145325330086052
103.49691404402256	1	postlearning	violation	2	n/a	10	face	female	1	0.42150940001010895
106.49685426906215	1	postlearning	violation	2	n/a	41	face	female	1	0.5026406869292259
109.49682166497223	1	postlearning	violation	2	n/a	15	face	male	1	0.4946880619972944
112.49679941101931	1	postlearning	violation	2	n/a	27	face	female	1	0.5917079269420356
115.49675978405868	1	postlearning	violation	2	n/a	38	face	female	1	0.4127468930091709
118.49670078104828	1	postlearning	violation	2	n/a	20	face	male	1	0.5077138129854575
121.49666048202198	1	postlearning	violation	2	n/a	40	face	male	1	0.4078570329584181
124.49662508897019	1	postlearning	violation	2	n/a	9	face	male	1	0.4198497800389305
127.49658494303006	1	postlearning	violation	2	n/a	18	face	female	1	0.4199251559330151
130.49654748104513	1	postlearning	violation	2	n/a	27	face	female	1	0.475946168997325
133.49650868098252	1	postlearning	violation	2	n/a	42	face	male	1	0.5199895650148392
136.4964692699723	1	postlearning	violation	2	n/a	48	face	male	1	0.4810516180004925
139.496428429964	1	postlearning	violation	2	n/a	29	face	male	1	0.5460837790742517
142.49638663500082	1	postlearning	violation	2	n/a	11	face	male	1	0.4731126070255414
145.49635380704422	1	postlearning	violation	2	n/a	25	face	female	1	0.4401482819812372
148.496322107967	1	postlearning	violation	2	n/a	29	face	male	1	0.4701941100647673
151.49627297895498	1	postlearning	violation	2	n/a	6	face	female	1	0.4092343330848962
154.49624846305232	1	postlearning	violation	2	n/a	5	face	male	1	0.4412460499443114
157.49619798304047	1	postlearning	violation	2	n/a	8	face	male	1	0.4513076629955322
160.49615705595352	1	postlearning	violation	2	n/a	45	face	female	1	0.4043445240240544
163.49613688199315	1	postlearning	violation	2	n/a	20	face	male	1	0.4753605050500482
166.4960882300511	1	postlearning	violation	2	n/a	32	face	female	1	0.4044118309393525
169.49604968598578	1	postlearning	violation	2	n/a	7	face	female	1	0.3714426240185276
172.4960185979726	1	postlearning	violation	2	n/a	21	face	male	1	0.44747912499587983
175.49596486298833	1	postlearning	violation	2	n/a	43	face	female	1	0.4075291570043191
178.49594239902214	1	postlearning	violation	2	n/a	39	face	female	1	0.3855567729333416
181.4958867339883	1	postlearning	violation	2	n/a	35	face	male	1	0.4446222570259124
184.49586270598232	1	postlearning	violation	2	n/a	26	face	male	1	0.4136474500410259
187.49581567104903	1	postlearning	violation	2	n/a	44	face	male	1	0.4736850199988112
190.4957774670329	1	postlearning	violation	2	n/a	21	face	male	1	0.4757421240210533
193.49573027400768	1	postlearning	violation	2	n/a	8	face	male	1	0.4217697860440239
196.4956912130583	1	postlearning	violation	2	n/a	39	face	female	1	0.6288198799593374
199.49564911297057	1	postlearning	violation	2	n/a	12	face	female	1	0.3938727200729773
202.49561190395616	1	postlearning	violation	2	n/a	30	face	female	1	0.393905392033048
205.49557148001625	1	postlearning	violation	2	n/a	19	face	male	1	0.4569305749610066
208.4955282820156	1	postlearning	violation	2	n/a	10	face	female	1	0.5769863650202751
211.49549721903168	1	postlearning	violation	2	n/a	42	face	male	1	0.5189870109315962
214.4954501329921	1	postlearning	violation	2	n/a	34	face	female	1	0.6650694169802591
217.49541967897682	1	postlearning	violation	2	n/a	30	face	female	1	0.4311024140333757
220.49537620495542	1	postlearning	violation	2	n/a	31	face	male	1	0.4570578770944849
223.49534233997107	1	postlearning	violation	2	n/a	16	face	male	1	0.5831637560622767
226.4953072390053	1	postlearning	violation	2	n/a	22	face	female	1	0.42419888998847455
229.495255963062	1	postlearning	violation	2	n/a	5	face	male	1	0.43625970697030425
232.4952340730233	1	postlearning	violation	2	n/a	24	face	male	1	0.5982691219542176
235.49518141103908	1	postlearning	violation	2	n/a	14	face	female	1	0.5253382959635928
238.4951438989956	1	postlearning	violation	2	n/a	17	face	female	1	0.4423901539994404
241.4951147630345	1	postlearning	violation	2	n/a	4	face	female	1	0.38241870200727135
244.49505547003358	1	postlearning	violation	2	n/a	44	face	male	1	0.43248369893990457
247.49502618599217	1	postlearning	violation	2	n/a	2	face	male	1	0.415490668034181
250.49498785706243	1	postlearning	violation	2	n/a	1	face	male	1	0.4145201389910653
253.49494706001133	1	postlearning	violation	2	n/a	34	face	female	1	0.4354858259903267
256.49490136501845	1	postlearning	violation	2	n/a	7	face	female	1	0.3646173139568418
259.49486561503727	1	postlearning	violation	2	n/a	36	face	male	1	0.6516448939219117
262.49483300105203	1	postlearning	violation	2	n/a	28	face	male	1	0.5126775569515303
265.4947916920064	1	postlearning	violation	2	n/a	32	face	female	1	0.4617186250397936
268.49475107504986	1	postlearning	violation	2	n/a	2	face	male	1	0.5107531179673971
271.49470904201735	1	postlearning	violation	2	n/a	26	face	male	1	0.5028279779944569
274.49467280099634	1	postlearning	violation	2	n/a	46	face	female	1	0.5328294830396771
277.4946300539886	1	postlearning	violation	2	n/a	33	face	male	1	0.4778926260769367
280.4946038780036	1	postlearning	violation	2	n/a	35	face	male	1	0.4919074679492042
283.4945518750464	1	postlearning	violation	2	n/a	17	face	female	1	0.6879611369222403
286.49450939300004	1	postlearning	violation	2	n/a	40	face	male	1	0.6910152829950675
289.494479628047	1	postlearning	violation	2	n/a	6	face	female	1	0.7380385639844462
292.4944309140556	1	postlearning	violation	2	n/a	41	face	female	1	0.6980995869962499
295.4943992369808	1	postlearning	violation	2	n/a	13	face	female	1	0.5040437480201945
298.4943598699756	1	postlearning	violation	2	n/a	28	face	male	1	0.5201553329825401
