onset	duration	trial_type	condition	response_accuracy	response_time
13.510304454015568	2.5	B	nonviolation	0	1.2689287110697478
16.51026372902561	2.5	B	nonviolation	1	1.4908953370759264
19.51023618003819	2.5	B	violation	1	1.1070159119553864
22.51019177399576	2.5	B	violation	0	1.1540704020299015
25.51015949004795	2.5	A	nonviolation	0	1.0770655670203269
28.510112314019352	2.5	A	nonviolation	1	0.6471275719814003
31.510084316018037	2.5	A	violation	1	1.233117213007063
34.51003314007539	2.5	A	violation	1	0.9472177269635722
37.509995501022786	2.5	B	nonviolation	1	1.1822501790011302
40.50996853306424	2.5	A	violation	1	0.934274783008732
43.509932502056465	2.5	A	nonviolation	1	0.6913034570170566
46.509886620100595	2.5	A	nonviolation	1	0.6723562869010493
49.509845735039555	2.5	A	violation	1	0.9813869450008496
52.50981062103529	2.5	B	nonviolation	1	1.334436003002338
55.50977254309692	2.5	A	nonviolation	1	0.7024767129914835
58.509729846031405	2.5	B	nonviolation	1	1.2965061389841142
61.50969997106586	2.5	B	nonviolation	1	1.2705547990044581
64.50966176006477	2.5	B	violation	0	1.2415909039555115
67.50961716310121	2.5	B	violation	0	1.29361751396209
70.50958514004014	2.5	A	violation	1	1.058649976970628
73.50953637808561	2.5	B	nonviolation	0	1.377645556931384
76.50950855808333	2.5	A	nonviolation	1	1.03072889696341
79.5094649330713	2.5	B	violation	1	0.9277710169553756
82.50942493509501	2.5	A	nonviolation	1	0.6988215009914711
85.50939316803124	2.5	A	nonviolation	1	0.9938536150148138
88.50935712503271	2.5	A	violation	1	1.1698947040131316
91.50930654502008	2.5	A	nonviolation	1	0.5958609139779583
94.50927295407746	2.5	B	nonviolation	0	1.132972985971719
97.50922819401606	2.5	B	violation	1	1.1009403060888872
100.50920166401191	2.5	A	violation	1	0.6410500410711393
103.50915665901266	2.5	A	violation	1	0.6770952430088073
106.50912414200138	2.5	B	violation	1	1.3041050730971622
109.50908604904544	2.5	B	violation	1	1.1141604280564934
112.50904569309203	2.5	B	violation	0	1.7502095269737763
115.50900702108628	2.5	B	nonviolation	0	1.2062352899229154
118.508957293001	2.5	B	violation	0	1.1612860671011729
121.50892385409679	2.5	A	nonviolation	1	0.7462469999445602
124.5088803099934	2.5	B	nonviolation	1	1.0903272110735998
127.50884033204056	2.5	B	violation	0	1.4074315440375358
130.50881600310095	2.5	A	violation	1	1.1244254659395665
133.50877206108999	2.5	A	violation	1	0.7644787849858403
136.50873423810117	2.5	B	nonviolation	1	1.0585180619964376
139.50869175209664	2.5	B	nonviolation	0	1.1655598569195718
142.50865277100817	2.5	B	violation	0	1.1396243470953775
145.50862009404227	2.5	A	violation	1	1.0276450370438397
148.5085842210101	2.5	A	nonviolation	1	1.2506750320317224
151.50853402004574	2.5	A	nonviolation	1	0.7236607329687104
154.50849695003123	2.5	A	violation	1	0.7636861610226333
157.5084513550391	2.5	A	nonviolation	1	0.5428074779920279
160.5084155530203	2.5	B	violation	1	1.219831197988242
163.50837799103462	2.5	A	nonviolation	1	0.5858117670286447
166.5083472740371	2.5	A	violation	1	0.7539153540274128
169.5082970400108	2.5	B	violation	1	1.0509607860585677
172.5082712681033	2.5	A	nonviolation	1	0.677921098889783
175.50821780902336	2.5	A	nonviolation	1	0.7000313920434564
178.50818373204675	2.5	B	violation	1	1.1110818809829652
181.5081469800789	2.5	A	violation	1	1.0651202530134471
184.50810615904632	2.5	A	violation	1	0.6811604179674761
187.50807686208282	2.5	A	nonviolation	1	0.5551854439545423
190.49134675308602	2.5	A	nonviolation	1	0.5928996839793399
193.49130802007855	2.5	B	violation	0	1.0629564049886542
196.5079404630233	2.5	B	violation	0	1.1693132370710373
199.4912279470591	2.5	A	violation	1	0.8290318279759958
202.4911948380759	2.5	B	nonviolation	1	0.9569946429692208
205.4911550410325	2.5	B	nonviolation	1	1.4781134789809585
208.4911168300314	2.5	A	nonviolation	1	0.5651623100275174
211.49108342302497	2.5	B	violation	1	1.3251640000380576
214.49104216007981	2.5	A	violation	1	0.5732383729191497
217.49100311705845	2.5	B	violation	1	0.7882660309551284
220.49096465704497	2.5	A	violation	1	0.7812994440319017
223.4909194970969	2.5	B	nonviolation	0	1.3793433289974928
226.49088378204036	2.5	B	violation	0	1.145398454973474
229.490842728992	2.5	A	nonviolation	1	0.7664199470309541
232.4908081390895	2.5	B	nonviolation	1	1.0284444169374185
235.49076701607555	2.5	A	nonviolation	1	0.8535159289604053
238.49073084804692	2.5	A	nonviolation	1	0.7734568100422621
241.4906894990709	2.5	B	nonviolation	0	1.3465523869963365
244.49064949399326	2.5	A	nonviolation	1	0.6366026210598648
247.4906072830781	2.5	B	nonviolation	1	0.9486635780194774
250.49056971608658	2.5	B	nonviolation	0	1.0566115009132773
253.49053182103668	2.5	B	violation	0	0.7637428310699761
256.4904942990979	2.5	B	nonviolation	0	1.3057698499178514
259.49045493709855	2.5	A	violation	1	0.9438011669553816
262.4904121950967	2.5	B	violation	1	1.172785019967705
265.49037749809213	2.5	A	violation	1	0.8558927369304001
268.49033643002616	2.5	A	violation	1	0.8999193180352449
271.49029564508237	2.5	B	violation	1	1.2609779150225222
274.4902568280231	2.5	A	violation	1	0.6430021720007062
277.4902203860693	2.5	B	violation	0	1.480054204002954
280.4902505580103	2.5	A	nonviolation	1	0.6240378420334309
283.49014138802886	2.5	A	violation	1	0.7101266740355641
286.4901007130975	2.5	B	nonviolation	1	1.3881611209362743
289.490096146008	2.5	B	nonviolation	1	2.0661716550821443
292.4900368520757	2.5	B	nonviolation	1	0.9272405829979108
295.48998324305285	2.5	A	violation	1	0.5242580049671233
298.48994511703495	2.5	B	nonviolation	0	1.110332090058364
301.48990293906536	2.5	B	nonviolation	1	0.9293711970094592
304.4898674370488	2.5	B	nonviolation	1	0.6953283930197358
307.48983299802063	2.5	B	nonviolation	1	1.1694475340191277
310.48978842108045	2.5	A	nonviolation	1	0.8664400429697707
313.48979334102484	2.5	B	nonviolation	0	1.4415078950114548
316.4897459089989	2.5	A	violation	1	1.0065315170213578
319.48966849804856	2.5	A	violation	1	0.9216082920320332
322.4896355920937	2.5	B	violation	1	0.819638159009628
325.4896020030137	2.5	B	violation	1	0.7616798940580338
328.48956600006204	2.5	B	nonviolation	1	0.6956988469464704
331.4895222900668	2.5	A	violation	1	0.7827563219470903
334.4894849010743	2.5	A	nonviolation	1	0.9007953739492224
337.4894366300432	2.5	A	nonviolation	1	1.0228319299640134
340.48939892300405	2.5	A	violation	1	0.7558714010519907
343.4893621460069	2.5	B	violation	0	0.9719217790989204
346.4893251650501	2.5	A	nonviolation	1	0.8249463080428541
349.4892786060227	2.5	A	violation	1	0.9590103679802268
352.4892504180316	2.5	B	violation	1	1.313020606059581
355.4892067729961	2.5	B	violation	0	1.496991581050679
358.48917582002474	2.5	A	violation	1	0.9300954020582141
361.489129722002	2.5	B	violation	1	1.1961407040944323
364.4890893111005	2.5	A	violation	1	0.8801081919809803
367.4890440950403	2.5	A	nonviolation	1	0.717149046016857
370.48900833004166	2.5	B	violation	0	0.8912762770196423
373.4889645570657	2.5	B	nonviolation	0	0.6273181820288299
376.4889302290976	2.5	A	nonviolation	1	0.6013499839464203
379.48889877006883	2.5	B	violation	0	0.8273737810086459
382.48884514009114	2.5	B	nonviolation	0	1.0184368829941377
385.4888215760002	2.5	A	nonviolation	1	0.556464693043381
388.48877432709565	2.5	A	nonviolation	1	0.9985077669844032
391.48872656503227	2.5	B	violation	1	1.2504706879844891
394.4886873310898	2.5	A	nonviolation	1	1.0585925609339029
397.4886466740864	2.5	B	violation	0	1.2676457269117236
400.48862453305634	2.5	B	violation	0	1.0195810600416737
403.48860250005964	2.5	A	violation	1	0.6136068509658799
406.48856544005685	2.5	A	violation	1	0.6247376259416342
409.4885219130665	2.5	A	violation	1	0.9067698499420658
412.4884539950872	2.5	B	nonviolation	1	1.0148415649309754
415.48841472901404	2.5	B	nonviolation	1	1.3848757330561057
418.48837845807435	2.5	A	nonviolation	1	0.8109166949288921
421.48834119702224	2.5	A	nonviolation	1	0.8058765389723703
424.4883022240829	2.5	A	violation	1	0.6499928579432889
427.4882704220945	2.5	B	nonviolation	1	0.8260218289215118
430.4882230830845	2.5	B	violation	1	0.7520080240210518
433.48818203504203	2.5	A	nonviolation	1	1.3431148880627006
436.48814919008873	2.5	A	violation	1	0.6311610189732164
439.4881008639932	2.5	B	nonviolation	1	0.6121790470788255
442.48806214903016	2.5	B	nonviolation	1	0.6532092220149934
445.48803381307516	2.5	B	violation	0	1.1512651100056246
448.48798827303114	2.5	B	nonviolation	1	0.9162334239808844
451.48794332309626	2.5	B	violation	1	1.3412964859744534
454.4879090170143	2.5	B	nonviolation	1	1.2243963270448148
457.4878656930523	2.5	A	nonviolation	1	0.6944252110552043
460.48782637901604	2.5	B	violation	1	0.9143986190902068
463.48779891303286	2.5	B	nonviolation	1	0.949496239074506
466.4877532760147	2.5	B	violation	1	1.3174631880829109
469.4877095760312	2.5	A	violation	1	0.7505100580165163
472.48767081601545	2.5	B	violation	1	1.1816281949868426
475.48763075808534	2.5	B	violation	0	0.8296678349142894
478.4876002511009	2.5	A	nonviolation	1	0.7796546109020709
481.48755322804215	2.5	B	violation	0	1.241740321042016
484.4875155760674	2.5	A	nonviolation	1	0.8777850120095536
487.48750749602914	2.5	B	violation	1	1.3187926600221545
490.4874321920797	2.5	A	nonviolation	1	0.742783549008891
493.4873959860997	2.5	B	nonviolation	1	1.0059015159495177
496.48736398306215	2.5	B	violation	0	0.930927208974026
499.48734766908456	2.5	A	nonviolation	1	0.5658609279198572
502.4872841730248	2.5	B	nonviolation	1	1.0369918170617891
505.4872420870232	2.5	B	violation	0	0.7710673930123448
508.4871958490694	2.5	B	violation	1	0.7021002229303122
511.4871593640419	2.5	A	nonviolation	1	0.6731247500283644
514.487127993023	2.5	B	violation	0	0.7960948660038412
517.4870889270678	2.5	A	nonviolation	1	0.5491321969311684
520.4870431730524	2.5	A	nonviolation	1	0.8882582070073113
523.4870094980579	2.5	A	nonviolation	1	0.9532826129579915
526.4869623250562	2.5	A	violation	1	0.7143138629617171
529.4869309910573	2.5	B	nonviolation	1	0.5913706140127033
532.4868969380623	2.5	A	violation	1	0.7404033539351076
535.4868537920993	2.5	A	violation	1	0.6344439059030265
538.4868154560681	2.5	A	violation	1	0.6954876870149747
541.486775693018	2.5	A	violation	1	0.6774805660825223
544.4867266550427	2.5	B	nonviolation	1	0.7514949690084904
547.4866893870059	2.5	B	nonviolation	1	0.8136226860806346
550.4866500350181	2.5	A	violation	1	0.7666434460552409
553.4866128300782	2.5	B	nonviolation	0	1.0606139459414408
556.4865780801047	2.5	A	violation	1	0.7997304348973557
559.486538746045	2.5	A	violation	1	0.7227666110266
562.4864976900863	2.5	A	nonviolation	1	0.6447955889161676
565.4864476900548	2.5	B	nonviolation	0	1.0098499619634822
568.4864106870955	2.5	B	nonviolation	1	1.2309028239687905
571.4863741750596	2.5	A	nonviolation	1	0.7589459799928591
574.4863350800006	2.5	A	nonviolation	1	0.8889631150523201
577.486296961084	2.5	B	nonviolation	1	0.8910071119898929
580.486260773032	2.5	A	violation	1	1.1290495470166206
583.4862271030432	2.5	A	violation	1	0.6140778140397742
586.4861798000056	2.5	A	violation	1	0.6461276829941198
