onset	duration	trial_type	subcategory	response_accuracy	response_time
13.58269527903758	0.5	object	natural	1.0	0.7238017069175839
14.999343435047194	0.5	object	manmade	1.0	0.7751507569337264
16.499326701043174	0.5	object	manmade	1.0	0.5051827100105584
17.999305572011508	0.5	object	natural	1.0	0.47919596801511943
19.499285941012204	0.5	object	manmade	1.0	0.5742082899669185
20.999266018043272	0.5	object	natural	1.0	0.4512303399387747
22.499244799022563	0.5	object	natural	1.0	0.44429053796920925
23.999226749059744	0.5	object	manmade	1.0	0.611258904915303
25.49920528405346	0.5	object	manmade	1.0	0.4252826179144904
26.99918741500005	0.5	object	natural	1.0	0.4593013010453433
43.5823018780211	0.5	scene	outdoor	1.0	0.8881908840266988
44.99895010399632	0.5	scene	indoor	1.0	0.574541297974065
46.49893167195842	0.5	scene	indoor	1.0	0.5085873240604997
47.998910948983394	0.5	scene	outdoor	1.0	0.4905883780447766
49.49889134103432	0.5	scene	outdoor	1.0	0.627600166015327
50.99887400097214	0.5	scene	indoor	1.0	0.6336240600794554
52.498850843985565	0.5	scene	outdoor	n/a	n/a
53.99883179995231	0.5	scene	outdoor	1.0	0.5296577020781115
55.49881258001551	0.5	scene	indoor	1.0	0.5786828739801422
56.99879288999364	0.5	scene	indoor	0.0	0.8187761730514467
73.58191114198416	0.5	scene	outdoor	1.0	0.6256503619952127
74.9985537789762	0.5	scene	outdoor	1.0	0.512941917986609
76.49853605602402	0.5	scene	outdoor	1.0	0.5439836230361834
77.9985164180398	0.5	scene	indoor	1.0	0.5709805319784209
79.49849627597723	0.5	scene	outdoor	1.0	0.5698963090544567
80.99847683601547	0.5	scene	indoor	1.0	0.6540149080101401
82.49845804297365	0.5	scene	outdoor	1.0	0.8100407320307568
83.99843637901358	0.5	scene	indoor	1.0	0.5340671259909868
85.4984194060089	0.5	scene	indoor	1.0	0.904075492057018
86.99839792295825	0.5	scene	indoor	n/a	n/a
103.5815124240471	0.5	object	natural	1.0	0.6829864219762385
104.9981606650399	0.5	object	natural	1.0	0.5003385039744899
106.50152015197091	0.5	object	natural	1.0	0.6299819560954347
107.99812094203662	0.5	object	manmade	1.0	0.490377762936987
109.49810039496515	0.5	object	manmade	1.0	0.541400948073715
110.99808510497678	0.5	object	natural	1.0	0.5224234079942107
112.49805996497162	0.5	object	manmade	1.0	0.6514378590509295
113.9980423169909	0.5	object	manmade	1.0	0.6224561739945784
115.4980221510632	0.5	object	natural	1.0	0.5795060899108648
116.99800077802502	0.5	object	manmade	1.0	0.5445212279446423
133.5811170330271	0.5	face	male	1.0	0.5763848919887096
134.99776413396467	0.5	face	female	1.0	0.4417433610651642
136.50091663899366	0.5	face	male	1.0	0.6935896390350536
137.99772557499819	0.5	face	male	1.0	0.4648251479957253
139.49770559300669	0.5	face	female	1.0	0.4858015370555222
140.99768949404825	0.5	face	female	1.0	0.4938131049275398
142.4976664549904	0.5	face	male	1.0	0.5548406130401418
143.99764623795636	0.5	face	male	1.0	0.6808769990457222
145.49762498098426	0.5	face	female	1.0	0.5289052850566804
146.99760705896188	0.5	face	female	1.0	0.5539033520035446
163.58072108705528	0.5	face	female	1.0	0.641810244997032
164.99736760603264	0.5	face	female	1.0	0.4121389070060104
166.49909331602976	0.5	face	male	1.0	0.49441339692566544
167.99732993904036	0.5	face	male	1.0	0.4371788229327649
169.49730994203128	0.5	face	male	1.0	0.4122053310275078
170.9972898979904	0.5	face	female	1.0	0.4162842050427571
172.49726998899132	0.5	face	female	1.0	0.47224414604716003
173.9972507400671	0.5	face	male	1.0	0.5501986589515582
175.49722899403423	0.5	face	female	1.0	0.6192775079980493
176.99720860098023	0.5	face	male	1.0	0.553296813974157
193.58032357797492	0.5	object	manmade	1.0	0.7471137220272794
194.99697319301777	0.5	object	manmade	1.0	0.5175569029524922
196.49824990099296	0.5	object	natural	1.0	0.6622616730164737
197.99693404498976	0.5	object	manmade	1.0	0.48458201601170003
199.49691428395454	0.5	object	natural	1.0	0.5745932470308617
200.99689896404743	0.5	object	manmade	1.0	0.5266112679382786
202.49687294196337	0.5	object	natural	1.0	0.66165693604853
203.9968551590573	0.5	object	natural	0.0	0.9416639109840617
205.49683615204412	0.5	object	manmade	1.0	0.7616828539175913
206.99681366200093	0.5	object	natural	1.0	0.5436999190133065
223.57992812502198	0.5	scene	indoor	1.0	0.7045827589463443
224.99657825601753	0.5	scene	indoor	0.0	0.5069456270430237
226.4966465330217	0.5	scene	outdoor	1.0	0.5418635410023853
227.99653632601257	0.5	scene	indoor	1.0	0.6889821359654889
229.49651865498163	0.5	scene	indoor	1.0	0.6049986800644547
230.99649814004079	0.5	scene	outdoor	1.0	0.6550230639986694
232.49647842906415	0.5	scene	indoor	1.0	0.8951163169695064
233.9964593279874	0.5	scene	outdoor	1.0	0.588056818000041
235.4964366919594	0.5	scene	outdoor	0.0	0.8781096930615604
236.99641854304355	0.5	scene	outdoor	1.0	0.9931002409430221
253.57953262201045	0.5	face	female	1.0	0.6110113030299544
254.99617958301678	0.5	face	male	1.0	0.8293389149475843
256.4961624380667	0.5	face	female	1.0	0.5053551249438897
257.9961419609608	0.5	face	female	1.0	0.4323801250429824
259.4961262070574	0.5	face	female	1.0	0.3803966969717294
260.9961025440134	0.5	face	male	1.0	0.4164288690080866
262.4960825049784	0.5	face	male	1.0	0.5144453700631857
263.9960638789926	0.5	face	male	1.0	0.4893156139878556
265.49604313098826	0.5	face	female	1.0	0.5314685120247304
266.996024067048	0.5	face	male	0.0	0.8764962499262765
283.57913536496926	0.5	object	natural	1.0	0.7643923090072349
284.99578574404586	0.5	object	natural	1.0	0.5036540839355439
286.4957668100251	0.5	object	natural	1.0	0.6627796849934384
287.99574311904144	0.5	object	natural	1.0	0.7197866520145908
289.495725514018	0.5	object	natural	1.0	0.6877993179950863
290.9957063370384	0.5	object	manmade	1.0	0.7538232610095292
292.4956862749532	0.5	object	manmade	1.0	0.5178441460011527
293.9956672639819	0.5	object	manmade	1.0	0.5647358030546457
295.4956470070174	0.5	object	manmade	1.0	0.48287449998315424
296.9956274239812	0.5	object	manmade	1.0	0.4818190640071407
313.5787386209704	0.5	scene	indoor	1.0	0.6367844390915707
314.99538914998993	0.5	scene	indoor	1.0	0.6842163730179891
316.49536752002314	0.5	scene	indoor	1.0	0.5881577630061656
317.995349533041	0.5	scene	outdoor	1.0	0.9511768890079111
319.4953294469742	0.5	scene	indoor	1.0	0.6151150050573051
320.99530794098973	0.5	scene	indoor	0.0	0.9202246490167454
322.495289176004	0.5	scene	outdoor	1.0	0.557244117022492
323.99527022906113	0.5	scene	outdoor	1.0	0.5622545649530366
325.4952490950236	0.5	scene	outdoor	1.0	0.9862896769773215
326.995230422006	0.5	scene	outdoor	1.0	0.6273054250050336
343.5783440100495	0.5	object	natural	1.0	0.8262598749715835
344.9949900630163	0.5	object	natural	1.0	0.4665423729456961
346.49497112701647	0.5	object	natural	1.0	0.6484782409388572
347.9949506119592	0.5	object	manmade	1.0	0.8715791481081396
349.4949334700359	0.5	object	natural	1.0	0.5955771169392392
350.9949128769804	0.5	object	manmade	1.0	0.454620702075772
352.4948929430684	0.5	object	manmade	1.0	0.6286342788953334
353.99487203906756	0.5	object	manmade	1.0	0.590662442962639
355.4948528549867	0.5	object	manmade	1.0	0.8457321060122922
356.99483293097	0.5	object	natural	1.0	0.43070043600164354
373.5779449880356	0.5	scene	indoor	1.0	0.6995979499770328
374.9945967430249	0.5	scene	outdoor	1.0	0.5919332839548588
376.4945733710192	0.5	scene	indoor	n/a	n/a
377.9945547550451	0.5	scene	outdoor	1.0	0.488979663932696
379.4945333150681	0.5	scene	outdoor	1.0	0.5290086519671604
380.99451488500927	0.5	scene	indoor	1.0	0.5520193090196699
382.49449639499653	0.5	scene	indoor	1.0	0.7191195109626278
383.99447557597887	0.5	scene	indoor	1.0	0.5390573070617393
385.4944555349648	0.5	scene	outdoor	1.0	0.7140839310595766
386.99443537800107	0.5	scene	outdoor	1.0	0.6391016560373828
403.5775500109885	0.5	face	female	1.0	0.6009896759642288
404.9941952370573	0.5	face	male	1.0	0.6433531359070912
406.4941831009928	0.5	face	male	1.0	0.5573530440451577
407.99415573105216	0.5	face	female	1.0	0.5063870809972286
409.49413783999626	0.5	face	female	1.0	0.36740114795975387
410.9941161510069	0.5	face	male	1.0	0.494432738982141
412.4940980420215	0.5	face	female	1.0	0.5464387480169535
413.99407770996913	0.5	face	female	1.0	0.5114904220681638
415.49405649804976	0.5	face	male	1.0	0.5813451469875872
416.97736828704365	0.5	face	male	1.0	0.5381578479427844
433.5771515229717	0.5	face	female	1.0	0.6353678749874234
434.97713361901697	0.5	face	female	1.0	0.4294055759673938
436.47711450001225	0.5	face	female	1.0	0.3653441530186683
437.977092672023	0.5	face	male	1.0	0.5604564530076459
439.4770736050559	0.5	face	male	1.0	0.5074677369557321
440.9770517309662	0.5	face	male	1.0	0.5195097640389577
442.477033918025	0.5	face	male	1.0	0.5765091089997441
443.9770140290493	0.5	face	female	0.0	0.46352618793025613
445.47699176496826	0.5	face	male	1.0	0.5755546920699999
446.97697402897757	0.5	face	female	1.0	0.4895696049788967
