onset	duration	trial_type	reward_condition	condition	repetition	pairmate	pairID	response_accuracy	response_time
13.51203905895818	2.5	scene	reward	violation	1	A	26	1	0.7509136450244114
16.01203905895818	3.0	feedback	n/a	n/a	n/a	n/a	n/a	n/a	n/a
19.511960722971708	2.5	scene	neutral	violation	1	A	30	1	0.8709898610832171
22.011960722971708	3.0	feedback	n/a	n/a	n/a	n/a	n/a	n/a	n/a
25.511882371036332	2.5	scene	neutral	nonviolation	1	A	89	1	0.8640727809397504
28.011882371036332	3.0	feedback	n/a	n/a	n/a	n/a	n/a	n/a	n/a
31.511808648006987	2.5	scene	neutral	violation	1	A	11	1	0.6201452029636129
34.01180864800699	3.0	feedback	n/a	n/a	n/a	n/a	n/a	n/a	n/a
37.51172852003947	2.5	scene	reward	violation	1	A	9	1	0.6042245029238984
40.01172852003947	3.0	feedback	n/a	n/a	n/a	n/a	n/a	n/a	n/a
43.511650842032395	2.5	scene	neutral	violation	1	A	22	0	1.2753075469518078
46.011650842032395	3.0	feedback	n/a	n/a	n/a	n/a	n/a	n/a	n/a
49.51156515895855	2.5	scene	reward	violation	1	A	14	1	0.8783938171109185
52.01156515895855	3.0	feedback	n/a	n/a	n/a	n/a	n/a	n/a	n/a
55.511485566967174	2.5	scene	neutral	violation	1	A	36	1	0.6494791420409456
58.011485566967174	3.0	feedback	n/a	n/a	n/a	n/a	n/a	n/a	n/a
61.51140814798418	2.5	scene	reward	nonviolation	1	A	53	1	1.0925566860241815
64.01140814798418	3.0	feedback	n/a	n/a	n/a	n/a	n/a	n/a	n/a
67.51133696606848	2.5	scene	reward	nonviolation	1	A	50	1	0.6436214089626446
70.01133696606848	3.0	feedback	n/a	n/a	n/a	n/a	n/a	n/a	n/a
73.51124866004102	2.5	scene	neutral	violation	1	A	3	1	0.83871671394445
76.01124866004102	3.0	feedback	n/a	n/a	n/a	n/a	n/a	n/a	n/a
79.51116976398043	2.5	scene	reward	violation	1	A	39	1	0.5427956699859351
82.01116976398043	3.0	feedback	n/a	n/a	n/a	n/a	n/a	n/a	n/a
85.51109073101543	2.5	scene	reward	nonviolation	1	A	90	1	0.8598747520009056
88.01109073101543	3.0	feedback	n/a	n/a	n/a	n/a	n/a	n/a	n/a
91.49434273503721	2.5	scene	reward	nonviolation	1	A	61	1	0.6706207749666646
93.99434273503721	3.0	feedback	n/a	n/a	n/a	n/a	n/a	n/a	n/a
97.49426354898605	2.5	scene	reward	nonviolation	1	A	81	1	0.8097072630189359
99.99426354898605	3.0	feedback	n/a	n/a	n/a	n/a	n/a	n/a	n/a
103.51085357007105	2.5	scene	reward	violation	1	A	21	0	0.6401071529835463
106.01085357007105	3.0	feedback	n/a	n/a	n/a	n/a	n/a	n/a	n/a
109.494112165994	2.5	scene	neutral	violation	1	A	10	1	0.8398575889877975
111.994112165994	3.0	feedback	n/a	n/a	n/a	n/a	n/a	n/a	n/a
115.4940316940192	2.5	scene	reward	violation	1	A	48	1	0.5829387160483748
117.9940316940192	3.0	feedback	n/a	n/a	n/a	n/a	n/a	n/a	n/a
121.49394927697722	2.5	scene	reward	nonviolation	1	A	78	0	1.1330190129810944
123.99394927697722	3.0	feedback	n/a	n/a	n/a	n/a	n/a	n/a	n/a
127.49387322098482	2.5	scene	neutral	nonviolation	1	A	52	1	0.9950921180425212
129.99387322098482	3.0	feedback	n/a	n/a	n/a	n/a	n/a	n/a	n/a
133.49379778199363	2.5	scene	reward	violation	1	A	41	1	0.5631709860172123
135.99379778199363	3.0	feedback	n/a	n/a	n/a	n/a	n/a	n/a	n/a
139.49371762003284	2.5	scene	reward	nonviolation	1	A	68	0	1.0742565030232072
141.99371762003284	3.0	feedback	n/a	n/a	n/a	n/a	n/a	n/a	n/a
145.49363728403114	2.5	scene	reward	violation	1	A	20	1	0.6422596999909729
147.99363728403114	3.0	feedback	n/a	n/a	n/a	n/a	n/a	n/a	n/a
151.49356484401503	2.5	scene	reward	violation	1	A	6	1	0.8134148119715974
153.99356484401503	3.0	feedback	n/a	n/a	n/a	n/a	n/a	n/a	n/a
157.4934792419663	2.5	scene	reward	nonviolation	1	A	88	1	0.7795034759910777
159.9934792419663	3.0	feedback	n/a	n/a	n/a	n/a	n/a	n/a	n/a
163.4979543440277	2.5	scene	reward	violation	1	A	8	1	0.6210200700443238
165.9979543440277	3.0	feedback	n/a	n/a	n/a	n/a	n/a	n/a	n/a
169.4933241519611	2.5	scene	reward	nonviolation	1	A	69	1	0.7216455560410395
171.99332415196113	3.0	feedback	n/a	n/a	n/a	n/a	n/a	n/a	n/a
175.49324167496525	2.5	scene	neutral	violation	1	A	27	1	0.7757331010652706
177.99324167496525	3.0	feedback	n/a	n/a	n/a	n/a	n/a	n/a	n/a
181.4980766429799	2.5	scene	neutral	nonviolation	1	A	93	1	0.6518990780459717
183.9980766429799	3.0	feedback	n/a	n/a	n/a	n/a	n/a	n/a	n/a
187.49761565204244	2.5	scene	neutral	nonviolation	1	A	74	1	0.6003578579984605
189.99761565204244	3.0	feedback	n/a	n/a	n/a	n/a	n/a	n/a	n/a
193.4930128380656	2.5	scene	neutral	nonviolation	1	A	64	1	0.706895476905629
195.9930128380656	3.0	feedback	n/a	n/a	n/a	n/a	n/a	n/a	n/a
199.49702503101437	2.5	scene	neutral	nonviolation	1	A	75	1	0.6989491749554873
201.99702503101437	3.0	feedback	n/a	n/a	n/a	n/a	n/a	n/a	n/a
205.4965427670395	2.5	scene	neutral	nonviolation	1	A	66	1	0.629436730989255
207.9965427670395	3.0	feedback	n/a	n/a	n/a	n/a	n/a	n/a	n/a
211.495832102024	2.5	scene	neutral	violation	1	A	5	1	0.6100796050159261
213.995832102024	3.0	feedback	n/a	n/a	n/a	n/a	n/a	n/a	n/a
217.49637740897012	2.5	scene	neutral	nonviolation	1	A	51	1	0.6165991959860548
219.99637740897012	3.0	feedback	n/a	n/a	n/a	n/a	n/a	n/a	n/a
223.49515224306373	2.5	scene	neutral	violation	1	A	45	1	0.6228292619343847
225.99515224306373	3.0	feedback	n/a	n/a	n/a	n/a	n/a	n/a	n/a
229.49596626206767	2.5	scene	neutral	violation	1	A	43	1	0.7060126049909741
231.99596626206767	3.0	feedback	n/a	n/a	n/a	n/a	n/a	n/a	n/a
235.49475831398738	2.5	scene	reward	nonviolation	1	A	80	1	0.7112238639965653
237.99475831398738	3.0	feedback	n/a	n/a	n/a	n/a	n/a	n/a	n/a
241.49456246802586	2.5	scene	reward	nonviolation	1	A	60	1	0.681422280962579
243.99456246802586	3.0	feedback	n/a	n/a	n/a	n/a	n/a	n/a	n/a
247.49431162804834	2.5	scene	neutral	nonviolation	1	A	83	1	0.6766725350171328
249.99431162804834	3.0	feedback	n/a	n/a	n/a	n/a	n/a	n/a	n/a
253.49411321303344	2.5	scene	neutral	violation	1	A	33	1	0.6348709779558703
255.99411321303344	3.0	feedback	n/a	n/a	n/a	n/a	n/a	n/a	n/a
259.4926226610551	2.5	scene	reward	violation	1	A	28	1	0.6963536819675937
261.9926226610551	3.0	feedback	n/a	n/a	n/a	n/a	n/a	n/a	n/a
265.49315311596735	2.5	scene	neutral	nonviolation	1	A	84	1	0.5558357971021906
267.99315311596735	3.0	feedback	n/a	n/a	n/a	n/a	n/a	n/a	n/a
271.49198240297846	2.5	scene	neutral	nonviolation	1	A	62	1	0.645003620069474
273.99198240297846	3.0	feedback	n/a	n/a	n/a	n/a	n/a	n/a	n/a
277.4936399969738	2.5	scene	neutral	violation	1	A	19	1	0.5573555669980124
279.9936399969738	3.0	feedback	n/a	n/a	n/a	n/a	n/a	n/a	n/a
283.492159847985	2.5	scene	neutral	nonviolation	1	A	71	1	0.5908274480607361
285.992159847985	3.0	feedback	n/a	n/a	n/a	n/a	n/a	n/a	n/a
289.49267779197544	2.5	scene	reward	violation	1	A	40	1	0.7282368650194257
291.99267779197544	3.0	feedback	n/a	n/a	n/a	n/a	n/a	n/a	n/a
295.4921999659855	2.5	scene	reward	nonviolation	1	A	94	0	0.8637940480839461
297.9921999659855	3.0	feedback	n/a	n/a	n/a	n/a	n/a	n/a	n/a
301.4915912860306	2.5	scene	neutral	violation	2	A	33	1	0.6663954969262704
303.9915912860306	3.0	feedback	n/a	n/a	n/a	n/a	n/a	n/a	n/a
307.4915105480468	2.5	scene	reward	violation	2	A	26	1	0.5674779339460656
309.9915105480468	3.0	feedback	n/a	n/a	n/a	n/a	n/a	n/a	n/a
313.491968989023	2.5	scene	neutral	violation	2	A	43	1	0.6010480989934877
315.991968989023	3.0	feedback	n/a	n/a	n/a	n/a	n/a	n/a	n/a
319.49134818604216	2.5	scene	neutral	nonviolation	2	A	51	1	0.5466458459850401
321.99134818604216	3.0	feedback	n/a	n/a	n/a	n/a	n/a	n/a	n/a
325.49126604199415	2.5	scene	reward	nonviolation	2	A	90	1	0.6387286910321563
327.99126604199415	3.0	feedback	n/a	n/a	n/a	n/a	n/a	n/a	n/a
331.49118860799354	2.5	scene	neutral	violation	2	A	30	1	0.6948092819657177
333.99118860799354	3.0	feedback	n/a	n/a	n/a	n/a	n/a	n/a	n/a
337.4911141860066	2.5	scene	neutral	violation	2	A	19	1	0.552878824993968
339.9911141860066	3.0	feedback	n/a	n/a	n/a	n/a	n/a	n/a	n/a
343.4910314580193	2.5	scene	reward	violation	2	A	28	1	0.5909628799417987
345.99103145801934	3.0	feedback	n/a	n/a	n/a	n/a	n/a	n/a	n/a
349.49095893104095	2.5	scene	neutral	violation	2	A	3	1	0.7980571499792859
351.99095893104095	3.0	feedback	n/a	n/a	n/a	n/a	n/a	n/a	n/a
355.49086937098764	2.5	scene	reward	violation	2	A	14	1	0.8351336739724502
357.99086937098764	3.0	feedback	n/a	n/a	n/a	n/a	n/a	n/a	n/a
361.4907918110257	2.5	scene	neutral	violation	2	A	36	1	0.6262045990442857
363.9907918110257	3.0	feedback	n/a	n/a	n/a	n/a	n/a	n/a	n/a
367.4907204189804	2.5	scene	neutral	violation	2	A	5	1	0.5582879050634801
369.9907204189804	3.0	feedback	n/a	n/a	n/a	n/a	n/a	n/a	n/a
373.49063384695916	2.5	scene	neutral	nonviolation	2	A	75	1	0.6623810330638662
375.99063384695916	3.0	feedback	n/a	n/a	n/a	n/a	n/a	n/a	n/a
379.4905555649892	2.5	scene	reward	nonviolation	2	A	50	1	0.5214457659749314
381.9905555649892	3.0	feedback	n/a	n/a	n/a	n/a	n/a	n/a	n/a
385.4904767900007	2.5	scene	reward	nonviolation	2	A	88	1	0.5505220820195973
387.9904767900007	3.0	feedback	n/a	n/a	n/a	n/a	n/a	n/a	n/a
391.49039902503137	2.5	scene	neutral	violation	2	A	10	1	0.8656129509909078
393.99039902503137	3.0	feedback	n/a	n/a	n/a	n/a	n/a	n/a	n/a
397.4903195949737	2.5	scene	reward	nonviolation	2	A	53	1	0.735706479055807
399.9903195949737	3.0	feedback	n/a	n/a	n/a	n/a	n/a	n/a	n/a
403.4902408800554	2.5	scene	reward	violation	2	A	48	1	0.6007583349710329
405.9902408800554	3.0	feedback	n/a	n/a	n/a	n/a	n/a	n/a	n/a
409.4901610199595	2.5	scene	reward	nonviolation	2	A	61	1	0.7088389580603689
411.9901610199595	3.0	feedback	n/a	n/a	n/a	n/a	n/a	n/a	n/a
415.4900815880392	2.5	scene	reward	nonviolation	2	A	94	1	0.661947233020328
417.9900815880392	3.0	feedback	n/a	n/a	n/a	n/a	n/a	n/a	n/a
421.4900021309732	2.5	scene	reward	nonviolation	2	A	69	1	0.5520052660722286
423.9900021309732	3.0	feedback	n/a	n/a	n/a	n/a	n/a	n/a	n/a
427.48992848803766	2.5	scene	neutral	nonviolation	2	A	71	1	0.5880724890157579
429.98992848803766	3.0	feedback	n/a	n/a	n/a	n/a	n/a	n/a	n/a
433.48984404106164	2.5	scene	reward	violation	2	A	41	1	0.6271635229932144
435.98984404106164	3.0	feedback	n/a	n/a	n/a	n/a	n/a	n/a	n/a
439.4897745189956	2.5	scene	neutral	violation	2	A	27	1	0.6632398910587654
441.9897745189956	3.0	feedback	n/a	n/a	n/a	n/a	n/a	n/a	n/a
445.489695833996	2.5	scene	reward	violation	2	A	6	1	0.6813264590455219
447.989695833996	3.0	feedback	n/a	n/a	n/a	n/a	n/a	n/a	n/a
451.4896091039991	2.5	scene	reward	nonviolation	2	A	81	1	0.7293208850314841
453.9896091039991	3.0	feedback	n/a	n/a	n/a	n/a	n/a	n/a	n/a
457.4895319080679	2.5	scene	neutral	nonviolation	2	A	84	1	0.5084889809368178
459.9895319080679	3.0	feedback	n/a	n/a	n/a	n/a	n/a	n/a	n/a
463.4894536259817	2.5	scene	reward	violation	2	A	39	1	0.5765624640043825
465.9894536259817	3.0	feedback	n/a	n/a	n/a	n/a	n/a	n/a	n/a
469.48937999806367	2.5	scene	neutral	nonviolation	2	A	83	1	0.5196278449147941
471.98937999806367	3.0	feedback	n/a	n/a	n/a	n/a	n/a	n/a	n/a
475.4892983180471	2.5	scene	reward	violation	2	A	9	1	0.5977150329854339
477.9892983180471	3.0	feedback	n/a	n/a	n/a	n/a	n/a	n/a	n/a
481.48921299201896	2.5	scene	reward	nonviolation	2	A	60	1	0.5567992579890415
483.98921299201896	3.0	feedback	n/a	n/a	n/a	n/a	n/a	n/a	n/a
487.4891415020684	2.5	scene	neutral	violation	2	A	45	1	0.6208721819566563
489.9891415020684	3.0	feedback	n/a	n/a	n/a	n/a	n/a	n/a	n/a
493.48905290698167	2.5	scene	reward	violation	2	A	8	1	0.5409574590157717
495.98905290698167	3.0	feedback	n/a	n/a	n/a	n/a	n/a	n/a	n/a
499.48898493906023	2.5	scene	neutral	nonviolation	2	A	66	1	0.5180252318968996
501.98898493906023	3.0	feedback	n/a	n/a	n/a	n/a	n/a	n/a	n/a
505.4889085619943	2.5	scene	reward	violation	2	A	20	1	0.7410262679914013
507.9889085619943	3.0	feedback	n/a	n/a	n/a	n/a	n/a	n/a	n/a
511.48881681403145	2.5	scene	reward	violation	2	A	21	1	1.217199316015467
513.9888168140316	3.0	feedback	n/a	n/a	n/a	n/a	n/a	n/a	n/a
517.4887394179823	2.5	scene	neutral	nonviolation	2	A	89	1	0.5382883860729635
519.9887394179823	3.0	feedback	n/a	n/a	n/a	n/a	n/a	n/a	n/a
523.4886575819693	2.5	scene	reward	violation	2	A	40	1	0.7383605390787125
525.9886575819693	3.0	feedback	n/a	n/a	n/a	n/a	n/a	n/a	n/a
529.4885824410012	2.5	scene	reward	nonviolation	2	A	80	1	0.6584375280654058
531.9885824410012	3.0	feedback	n/a	n/a	n/a	n/a	n/a	n/a	n/a
535.4718372570352	2.5	scene	neutral	violation	2	A	22	1	0.598185534006916
537.9718372570352	3.0	feedback	n/a	n/a	n/a	n/a	n/a	n/a	n/a
541.4717509170297	2.5	scene	neutral	nonviolation	2	A	93	1	0.5162683830130845
543.9717509170297	3.0	feedback	n/a	n/a	n/a	n/a	n/a	n/a	n/a
547.4883430070477	2.5	scene	neutral	nonviolation	2	A	64	1	0.6136856150114909
549.9883430070477	3.0	feedback	n/a	n/a	n/a	n/a	n/a	n/a	n/a
553.4716009639669	2.5	scene	neutral	nonviolation	2	A	62	1	0.6004198160953821
555.9716009639669	3.0	feedback	n/a	n/a	n/a	n/a	n/a	n/a	n/a
559.471519566956	2.5	scene	reward	nonviolation	2	A	78	0	0.8755032770568505
561.971519566956	3.0	feedback	n/a	n/a	n/a	n/a	n/a	n/a	n/a
565.4714413830079	2.5	scene	reward	nonviolation	2	A	68	1	0.6655784150352702
567.9714413830079	3.0	feedback	n/a	n/a	n/a	n/a	n/a	n/a	n/a
571.4713594430359	2.5	scene	neutral	nonviolation	2	A	52	1	1.163669025991112
573.9713594430359	3.0	feedback	n/a	n/a	n/a	n/a	n/a	n/a	n/a
577.4712852239609	2.5	scene	neutral	violation	2	A	11	1	0.6167366310255602
579.9712852239609	3.0	feedback	n/a	n/a	n/a	n/a	n/a	n/a	n/a
583.4711996009572	2.5	scene	neutral	nonviolation	2	A	74	1	0.5388245730428025
585.9711996009572	3.0	feedback	n/a	n/a	n/a	n/a	n/a	n/a	n/a
