onset	duration	trial_type	condition	repetition	pairmate	pairID	category	subcategory	response_accuracy	response_time
13.510122701060029	1	prelearning	violation	1	A	24	scene	indoor	1	0.7800913290120661
16.51007358287461	1	prelearning	violation	1	A	19	scene	outdoor	1	0.5991141591221094
19.510034010978416	1	prelearning	violation	1	B	17	scene	indoor	1	0.5171474989037961
22.5099965268746	1	prelearning	violation	1	B	19	scene	outdoor	1	0.5271891551092267
25.5099550599698	1	prelearning	violation	1	B	18	scene	indoor	1	0.5062255600932986
28.5099235358648	1	prelearning	violation	1	B	22	scene	outdoor	1	0.42826766916550696
31.509876780910414	1	prelearning	violation	1	A	21	scene	indoor	1	0.5673049581237137
34.509847935987636	1	prelearning	nonviolation	1	B	66	scene	outdoor	1	0.5372116500511765
37.50979818101041	1	prelearning	violation	1	A	20	scene	indoor	1	0.5363835368771106
40.50976962386631	1	prelearning	nonviolation	1	B	69	scene	outdoor	1	0.7554176209960133
43.50972107704729	1	prelearning	nonviolation	1	B	68	scene	outdoor	1	0.5504646149929613
46.50968151097186	1	prelearning	nonviolation	1	B	70	scene	outdoor	1	0.5885403091087937
49.50965366605669	1	prelearning	nonviolation	1	B	65	scene	indoor	0	0.8125367239117622
52.509601060999564	1	prelearning	violation	1	B	23	scene	outdoor	1	0.5565814429428428
55.50956034404226	1	prelearning	violation	1	A	22	scene	indoor	1	0.6406280780211091
58.50952250394039	1	prelearning	violation	1	A	17	scene	outdoor	1	0.5516675170511007
61.5094844410196	1	prelearning	nonviolation	1	A	66	scene	outdoor	1	0.698700392851606
64.50945168104954	1	prelearning	nonviolation	1	A	71	scene	outdoor	1	0.5677374289371073
67.50941482791677	1	prelearning	violation	1	B	20	scene	indoor	1	0.6067756901029497
70.5093623320572	1	prelearning	violation	1	A	18	scene	outdoor	1	0.4458275658544153
73.50932407588698	1	prelearning	nonviolation	1	A	69	scene	outdoor	1	0.7248676309827715
76.50930165196769	1	prelearning	nonviolation	1	B	71	scene	indoor	1	0.6858659780118614
79.50924767390825	1	prelearning	nonviolation	1	A	70	scene	indoor	1	0.7179399069864303
82.50920810201204	1	prelearning	nonviolation	1	B	72	scene	indoor	1	0.7869847719557583
85.5091685380321	1	prelearning	nonviolation	1	A	67	scene	outdoor	0	0.9810221858788282
88.5091337149497	1	prelearning	violation	1	B	21	scene	outdoor	1	0.755060622934252
91.5090891260188	1	prelearning	nonviolation	1	B	67	scene	indoor	0	0.5631029210053384
94.50904928799721	1	prelearning	nonviolation	1	A	65	scene	indoor	1	0.551143144024536
97.50900755589828	1	prelearning	nonviolation	1	A	72	scene	indoor	1	0.7991001710761338
100.50897040986456	1	prelearning	violation	1	A	23	scene	outdoor	1	0.5402200620155782
103.50892830197701	1	prelearning	nonviolation	1	A	68	scene	indoor	1	0.5712633980438113
106.50889891991392	1	prelearning	violation	1	B	24	scene	indoor	1	0.5452938100788742
109.50885697803459	1	learning	violation	2	A	17	scene	outdoor	1	0.5983375809155405
112.5088172480464	1	learning	violation	2	B	17	scene	indoor	1	0.5653829388320446
115.50876960088499	1	learning	nonviolation	2	A	65	scene	indoor	1	0.5354261610191315
118.50873655499892	1	learning	nonviolation	2	B	65	scene	indoor	0	0.7164596419315785
121.50869050691836	1	learning	violation	2	A	18	scene	outdoor	1	0.6045022790785879
124.50865267007612	1	learning	violation	2	B	18	scene	indoor	1	0.5155502138659358
127.50861207791606	1	learning	violation	2	A	19	scene	outdoor	1	0.4995880550704897
130.49189524492252	1	learning	violation	2	B	19	scene	outdoor	1	0.5142998080700636
133.49185277801007	1	learning	nonviolation	2	A	66	scene	outdoor	1	0.6503471659962088
136.50850866991095	1	learning	nonviolation	2	B	66	scene	outdoor	1	0.5726865280885249
139.49177445587702	1	learning	nonviolation	3	A	65	scene	indoor	1	0.6544220352079719
142.49173393496312	1	learning	nonviolation	3	B	65	scene	indoor	0	0.8814629020635039
145.49169403500858	1	learning	violation	3	A	17	scene	outdoor	1	0.6085055549629033
148.50834856601432	1	learning	violation	3	B	17	scene	indoor	1	0.5268472149036825
151.4916194130201	1	learning	nonviolation	2	A	67	scene	outdoor	1	0.7335778090637177
154.49158835504204	1	learning	nonviolation	2	B	67	scene	indoor	0	0.5546136850025505
157.49153804592785	1	learning	violation	2	A	20	scene	indoor	1	0.800667452160269
160.4914994740393	1	learning	violation	2	B	20	scene	indoor	1	0.7377003380097449
163.49145995406434	1	learning	nonviolation	2	A	68	scene	indoor	1	0.6187317799776793
166.49141400493681	1	learning	nonviolation	2	B	68	scene	outdoor	1	0.6377896531485021
169.49137842003256	1	learning	violation	3	A	18	scene	outdoor	1	0.5078254758846015
172.4913490889594	1	learning	violation	3	B	18	scene	indoor	1	0.6628547781147063
175.49129948508926	1	learning	nonviolation	4	A	65	scene	indoor	1	0.5639040388632566
178.491264417069	1	learning	nonviolation	4	B	65	scene	indoor	0	0.7069391589611769
181.49122465890832	1	learning	nonviolation	3	A	67	scene	outdoor	1	0.6529825860634446
184.49118247604932	1	learning	nonviolation	3	B	67	scene	indoor	0	0.581023464910686
187.49114083591851	1	learning	violation	2	A	21	scene	indoor	1	0.5630673000123352
190.49110172293152	1	learning	violation	2	B	21	scene	outdoor	1	1.229106435086578
193.49106025905346	1	learning	violation	2	A	22	scene	indoor	1	0.5271439410280436
196.49102013092488	1	learning	violation	2	B	22	scene	outdoor	1	0.5281851850450039
199.4909822659101	1	learning	violation	3	A	20	scene	indoor	1	0.5562253859825432
202.4909402600024	1	learning	violation	3	B	20	scene	indoor	1	0.5702718480024487
205.4909017989412	1	learning	nonviolation	4	A	67	scene	outdoor	1	0.7723103309981525
208.49085901887162	1	learning	nonviolation	4	B	67	scene	indoor	0	0.6543499331455678
211.4908382459544	1	learning	nonviolation	2	A	69	scene	outdoor	1	0.7473740510176867
214.4907896600198	1	learning	nonviolation	2	B	69	scene	outdoor	1	1.3184182739350945
217.4907476939261	1	learning	nonviolation	3	A	68	scene	indoor	1	0.6444612790364772
220.49074912699868	1	learning	nonviolation	3	B	68	scene	outdoor	1	0.5094601779710501
223.49066171608862	1	learning	nonviolation	2	A	70	scene	indoor	1	0.99255303083919
226.4906341668684	1	learning	nonviolation	2	B	70	scene	outdoor	1	0.5975795690901577
229.4905834118836	1	learning	violation	3	A	19	scene	outdoor	1	1.0656240091193467
232.490548430942	1	learning	violation	3	B	19	scene	outdoor	1	0.570659538032487
235.49051174405034	1	learning	nonviolation	3	A	66	scene	outdoor	1	0.5196991330012679
238.49046715488655	1	learning	nonviolation	3	B	66	scene	outdoor	1	0.4557429300621152
241.49042205908336	1	restudy	nonviolation	5	B	67	scene	indoor	0	0.5277859708294272
244.49038890795785	1	learning	violation	4	A	18	scene	outdoor	1	0.5628257531207055
247.49034480494447	1	learning	violation	4	B	18	scene	indoor	1	0.571869116043672
250.4903170149773	1	restudy	nonviolation	5	B	65	scene	indoor	0	0.6628971400205046
253.49027298996222	1	learning	nonviolation	2	A	71	scene	outdoor	1	0.5319488840177655
256.49021881609224	1	learning	nonviolation	2	B	71	scene	indoor	1	0.7229945538565516
259.49018549802713	1	learning	violation	3	A	21	scene	indoor	1	0.8130351339932531
262.49014308094047	1	learning	violation	3	B	21	scene	outdoor	1	0.5230711360927671
265.4901056189556	1	learning	violation	4	A	17	scene	outdoor	1	0.5330047130119056
268.4900772229303	1	learning	violation	4	B	17	scene	indoor	1	0.8481383209582418
271.4900243759621	1	learning	violation	2	A	23	scene	outdoor	1	0.5951885050162673
274.48998187086545	1	learning	violation	2	B	23	scene	outdoor	n/a	n/a
277.48994843498804	1	learning	violation	4	A	19	scene	outdoor	1	0.6032765770796686
280.48991086496966	1	learning	violation	4	B	19	scene	outdoor	1	0.4523024971131235
283.489861338865	1	learning	nonviolation	3	A	69	scene	outdoor	1	0.5413522061426193
286.4898315439932	1	learning	nonviolation	3	B	69	scene	outdoor	1	0.5913859060965478
289.4897813228891	1	learning	violation	4	A	20	scene	indoor	1	0.5224378411658108
292.48973963106977	1	learning	violation	4	B	20	scene	indoor	1	0.5584800979122521
295.4897047299892	1	violation	violation	5	A	18	scene	outdoor	1	0.4725152670871466
298.4896638679784	1	violation	violation	1	X	18	face	female	1	0.5695558830630034
301.48962329304777	1	violation	violation	5	A	17	scene	outdoor	1	0.502596020931378
304.48958021798165	1	violation	violation	1	X	17	face	female	1	0.439634565031156
307.4895399389788	1	learning	violation	3	A	22	scene	indoor	1	0.4956796679180116
310.4895073468797	1	learning	violation	3	B	22	scene	outdoor	1	0.5036503490991889
313.4894582920242	1	learning	nonviolation	4	A	68	scene	indoor	1	0.5187596648465842
316.4894222589209	1	learning	nonviolation	4	B	68	scene	outdoor	1	0.5077955950982869
319.4893868600484	1	restudy	violation	5	B	17	scene	indoor	1	0.5108361148741096
322.48933671088884	1	restudy	nonviolation	6	B	65	scene	indoor	0	0.6688895600382239
325.48929921002133	1	learning	nonviolation	4	A	69	scene	outdoor	1	0.5919313449412584
328.4892714619636	1	learning	nonviolation	4	B	69	scene	outdoor	1	0.6529532850254327
331.4892273519654	1	learning	nonviolation	3	A	70	scene	indoor	1	0.5699208769947289
334.4891785469372	1	learning	nonviolation	3	B	70	scene	outdoor	1	1.008041850058362
337.48913658596575	1	learning	nonviolation	4	A	66	scene	outdoor	1	0.5070867049507797
340.4891069370788	1	learning	nonviolation	4	B	66	scene	outdoor	1	0.5121138978283852
343.48905666801153	1	learning	violation	4	A	21	scene	indoor	1	0.7581786040682346
346.4890189659782	1	learning	violation	4	B	21	scene	outdoor	1	0.6292067700996995
349.48897691606544	1	learning	nonviolation	3	A	71	scene	outdoor	1	0.4432500919792801
352.4889377900399	1	learning	nonviolation	3	B	71	scene	indoor	1	0.6822892930358648
355.4888959750533	1	restudy	nonviolation	6	B	67	scene	indoor	0	0.4713308028876782
358.4888542399276	1	learning	nonviolation	2	A	72	scene	indoor	1	0.7273689431603998
361.48881674604485	1	learning	nonviolation	2	B	72	scene	indoor	1	0.5034102878998965
364.48877487587737	1	violation	violation	5	A	19	scene	outdoor	1	0.77745201298967
367.48874373501167	1	violation	violation	1	X	19	face	male	1	0.6844830028712751
370.4886945139151	1	restudy	violation	5	B	18	scene	indoor	1	0.5405314660165459
373.4886579918675	1	learning	violation	3	A	23	scene	outdoor	1	0.478522835066542
376.4886142648757	1	learning	violation	3	B	23	scene	outdoor	1	0.4784941831603646
379.4885722768959	1	learning	nonviolation	4	A	70	scene	indoor	n/a	n/a
382.4885364070069	1	learning	nonviolation	4	B	70	scene	outdoor	1	0.595697799930349
385.48849953198805	1	learning	violation	2	A	24	scene	indoor	1	0.7266073620412499
388.48845899291337	1	learning	violation	2	B	24	scene	indoor	1	0.5787667061667889
391.4884120118803	1	restudy	nonviolation	5	B	66	scene	outdoor	1	0.5148208050522953
394.48838027496816	1	learning	nonviolation	4	A	71	scene	outdoor	1	0.4698288319632411
397.4883356778882	1	learning	nonviolation	4	B	71	scene	indoor	1	0.5528928979765624
400.4882867580746	1	violation	violation	5	A	20	scene	indoor	1	0.5499473907984793
403.4882533259224	1	violation	violation	1	X	20	face	female	1	0.8529868510086089
406.4882207340561	1	restudy	nonviolation	5	B	68	scene	outdoor	1	1.0050045419484377
409.48817558889283	1	learning	violation	4	A	22	scene	indoor	1	1.3080546511337159
412.4881321950816	1	learning	violation	4	B	22	scene	outdoor	1	0.5390537108760327
415.4880948080682	1	violation	violation	6	A	17	scene	outdoor	1	0.5901411038357764
418.4880477730185	1	violation	violation	1	Y	17	face	female	1	0.5691123530268669
421.4880173739512	1	violation	violation	5	A	21	scene	indoor	1	0.6302193789742887
424.4879763380159	1	violation	violation	1	X	21	face	male	1	1.0032535889185965
427.48793285689317	1	restudy	nonviolation	5	B	69	scene	outdoor	1	0.7283048571553081
430.48788753990084	1	learning	nonviolation	3	A	72	scene	indoor	1	0.565348036121577
433.4878446429502	1	learning	nonviolation	3	B	72	scene	indoor	1	0.6383551261387765
436.48780662496574	1	violation	violation	6	A	18	scene	outdoor	1	0.7194331560749561
439.4877651629504	1	violation	violation	1	Y	18	face	female	1	0.5193526949733496
442.4877342879772	1	learning	violation	3	A	24	scene	indoor	1	0.5084973271004856
445.4876834680326	1	learning	violation	3	B	24	scene	indoor	1	0.5685544409789145
448.4876486049034	1	restudy	violation	5	B	19	scene	outdoor	1	0.5485877019818872
451.4876108679455	1	restudy	nonviolation	5	B	71	scene	indoor	1	0.4996271310374141
454.4875622859689	1	learning	violation	4	A	23	scene	outdoor	1	0.5036756061017513
457.4875239499379	1	learning	violation	4	B	23	scene	outdoor	1	0.8867165599949658
460.48748349607916	1	learning	violation	4	A	24	scene	indoor	1	0.5097574419341981
463.4874414829537	1	learning	violation	4	B	24	scene	indoor	1	1.3628004540223628
466.48740950296633	1	learning	nonviolation	4	A	72	scene	indoor	1	0.5538372830487788
469.4873611840885	1	learning	nonviolation	4	B	72	scene	indoor	1	0.6018841988407075
472.4873264990747	1	violation	violation	6	A	19	scene	outdoor	1	0.4919198099523783
475.4872804610058	1	violation	violation	1	Y	19	face	male	1	0.6119634420610964
478.48724206187757	1	restudy	nonviolation	5	B	70	scene	outdoor	1	0.5160014310386032
481.48721211706294	1	restudy	violation	5	B	21	scene	outdoor	1	0.6580352368764579
484.4871567250229	1	restudy	violation	6	B	18	scene	indoor	1	0.5420881379395723
487.4871268349234	1	restudy	nonviolation	6	B	66	scene	outdoor	1	0.4811146720312536
490.4870807020925	1	restudy	nonviolation	6	B	70	scene	outdoor	1	0.541161997942254
493.48703702189965	1	restudy	nonviolation	6	B	68	scene	outdoor	1	0.5372042451053858
496.4869967810809	1	restudy	violation	5	B	20	scene	indoor	1	0.7041275149676949
499.48695901897736	1	violation	violation	5	A	22	scene	indoor	1	0.5742821691092104
502.48691814602347	1	violation	violation	1	X	22	face	male	n/a	n/a
505.4868781559635	1	restudy	violation	6	B	17	scene	indoor	1	0.4903659319970757
508.4868341560941	1	restudy	nonviolation	6	B	71	scene	indoor	1	0.5714108489919454
511.4867961930577	1	restudy	violation	5	B	22	scene	outdoor	1	0.5124508738517761
514.4867545429152	1	restudy	nonviolation	6	B	69	scene	outdoor	1	0.725498024141416
517.4867129540071	1	violation	violation	5	A	24	scene	indoor	1	0.4795376940164715
520.4866826778743	1	violation	violation	1	X	24	face	female	1	0.6205630851909518
523.4866347850766	1	violation	violation	5	A	23	scene	outdoor	1	0.5126097528263927
526.4865946790668	1	violation	violation	1	X	23	face	male	1	0.7996539790183306
529.4865622799844	1	restudy	nonviolation	5	B	72	scene	indoor	1	0.5346898459829389
532.4865158060566	1	violation	violation	6	A	20	scene	indoor	1	0.6377285898197442
535.4864722220227	1	violation	violation	1	Y	20	face	female	1	0.6888086008839309
538.4864371689036	1	restudy	violation	5	B	23	scene	outdoor	1	0.5478146190289408
541.4863969199359	1	violation	violation	6	A	22	scene	indoor	1	0.5198524680454284
544.4863645560108	1	violation	violation	1	Y	22	face	male	1	0.6258833429310471
547.486320164986	1	restudy	violation	6	B	20	scene	indoor	1	0.5508626599330455
550.4862684430555	1	restudy	violation	6	B	19	scene	outdoor	1	0.5659778979606926
553.4862301258836	1	restudy	violation	5	B	24	scene	indoor	1	0.522027081111446
556.4861959430855	1	violation	violation	6	A	21	scene	indoor	1	0.5500580479856579
559.4861539278645	1	violation	violation	1	Y	21	face	male	1	0.5631045522168279
562.4861079999246	1	violation	violation	6	A	23	scene	outdoor	1	0.509140637004748
565.4860664380249	1	violation	violation	1	Y	23	face	male	1	0.5801828920375556
568.4860280009452	1	violation	violation	6	A	24	scene	indoor	1	0.5402244010474533
571.4859947329388	1	violation	violation	1	Y	24	face	female	1	0.5492539070546627
574.4859438149724	1	restudy	nonviolation	6	B	72	scene	indoor	1	0.463308921083808
577.4859074358827	1	restudy	violation	6	B	23	scene	outdoor	1	0.8233470059931278
580.4691863718907	1	restudy	violation	6	B	24	scene	indoor	1	1.1221026000566778
583.4691483790522	1	restudy	violation	6	B	22	scene	outdoor	1	0.4600867750123143
586.4691087610554	1	restudy	violation	6	B	21	scene	outdoor	1	0.5891444068402052
