onset	duration	trial_type	condition	repetition	pairmate	pairID	category	subcategory	response_accuracy	response_time
13.509250789997168	1	prelearning	violation	1	A	26	scene	outdoor	1	0.9278652519860769
16.509227639005985	1	prelearning	nonviolation	1	A	73	scene	outdoor	1	0.4428939399949741
19.509174273000102	1	prelearning	violation	1	A	27	scene	indoor	1	0.4579397419875022
22.509136913984552	1	prelearning	violation	1	B	30	scene	indoor	1	0.5879819230176508
25.50909202100593	1	prelearning	nonviolation	1	A	79	scene	outdoor	1	0.5180268029798754
28.50905623100698	1	prelearning	nonviolation	1	A	78	scene	indoor	1	0.5110656839970034
31.50902318299632	1	prelearning	nonviolation	1	A	80	scene	indoor	1	0.5680930299859028
34.50898344098823	1	prelearning	nonviolation	1	B	77	scene	indoor	1	0.7141343590046745
37.508937281992985	1	prelearning	violation	1	B	26	scene	outdoor	1	0.42218272600439377
40.5088969990029	1	prelearning	nonviolation	1	B	73	scene	indoor	1	0.5952274900046177
43.508863744995324	1	prelearning	nonviolation	1	B	74	scene	outdoor	1	0.9962566540052648
46.50881581698196	1	prelearning	violation	1	A	28	scene	outdoor	1	0.6113083040108904
49.50877851399128	1	prelearning	violation	1	A	32	scene	outdoor	1	0.4553406689956319
52.508749219996396	1	prelearning	violation	1	A	29	scene	indoor	1	0.5473693390085828
55.50869722000789	1	prelearning	violation	1	B	31	scene	indoor	1	0.6614232559804805
58.508656547986895	1	prelearning	nonviolation	1	B	78	scene	indoor	1	0.9434687360189856
61.50862974798657	1	prelearning	violation	1	B	29	scene	indoor	1	0.4934929849987384
64.50858619299834	1	prelearning	violation	1	A	25	scene	indoor	1	0.4815364859823603
67.50853822298814	1	prelearning	nonviolation	1	A	74	scene	outdoor	1	0.446587587997783
70.50849839500734	1	prelearning	nonviolation	1	A	75	scene	outdoor	1	0.4806251149857417
73.50845516400295	1	prelearning	nonviolation	1	B	79	scene	outdoor	1	0.4526709549827501
76.50842984800694	1	prelearning	violation	1	A	30	scene	indoor	1	0.5986938269925304
79.50837710799533	1	prelearning	nonviolation	1	A	77	scene	indoor	1	0.8397546939959284
82.50833933099057	1	prelearning	violation	1	A	31	scene	outdoor	1	0.5067900150024798
85.5082981000014	1	prelearning	violation	1	B	32	scene	outdoor	1	0.6508255509834271
88.5082644679933	1	prelearning	nonviolation	1	B	75	scene	indoor	1	0.4998633849900216
91.50821506397915	1	prelearning	violation	1	B	25	scene	outdoor	1	0.4929104920011014
94.50817804899998	1	prelearning	nonviolation	1	B	76	scene	outdoor	1	0.4939494959835429
97.50813964000555	1	prelearning	nonviolation	1	B	80	scene	outdoor	1	0.5329899779753761
100.50809736599331	1	prelearning	violation	1	B	28	scene	indoor	1	0.506031825003447
103.50805871098422	1	prelearning	nonviolation	1	A	76	scene	indoor	1	0.5760676250210963
106.50802075598041	1	prelearning	violation	1	B	27	scene	outdoor	1	0.5541091110208072
109.50797940199844	1	learning	violation	2	A	25	scene	indoor	1	0.515148489997955
112.50793607899686	1	learning	violation	2	B	25	scene	outdoor	1	0.5041953809850384
115.5079053459922	1	learning	nonviolation	2	A	73	scene	outdoor	1	0.5132285369909368
118.50787100198795	1	learning	nonviolation	2	B	73	scene	indoor	1	0.6672658449970186
121.50781858098343	1	learning	nonviolation	2	A	74	scene	outdoor	1	0.4583102690230589
124.50778642998192	1	learning	nonviolation	2	B	74	scene	outdoor	1	0.5313436560099944
127.50774567300688	1	learning	violation	3	A	25	scene	indoor	1	0.525386527995579
130.50770495299366	1	learning	violation	3	B	25	scene	outdoor	1	0.4464308489987161
133.50765910799964	1	learning	nonviolation	2	A	75	scene	outdoor	1	0.5224708559981082
136.50761882399092	1	learning	nonviolation	2	B	75	scene	indoor	1	0.402513695997186
139.50758323498303	1	learning	nonviolation	2	A	76	scene	indoor	1	0.5845508770144079
142.50753760000225	1	learning	nonviolation	2	B	76	scene	outdoor	1	0.6255917300004512
145.50749991598425	1	learning	violation	2	A	26	scene	outdoor	1	0.5386312839982565
148.50745679499232	1	learning	violation	2	B	26	scene	outdoor	1	0.3856795959873125
151.50741661398206	1	learning	nonviolation	2	A	77	scene	indoor	1	0.508720035024453
154.5073876289825	1	learning	nonviolation	2	B	77	scene	indoor	1	0.5717465699999593
157.50734196198758	1	learning	nonviolation	3	A	74	scene	outdoor	1	0.5607952430145815
160.50729266298003	1	learning	nonviolation	3	B	74	scene	outdoor	1	0.7818477750115562
163.5072558829852	1	learning	violation	2	A	27	scene	indoor	1	0.5258846110082231
166.50722385299738	1	learning	violation	2	B	27	scene	outdoor	1	0.5769215830077883
169.50717397499832	1	learning	nonviolation	3	A	75	scene	outdoor	1	0.5109609359933529
172.5071494609874	1	learning	nonviolation	3	B	75	scene	indoor	1	0.5359904119977728
175.50709420000203	1	learning	violation	2	A	28	scene	outdoor	1	0.4310471729841083
178.5070548979856	1	learning	violation	2	B	28	scene	indoor	1	0.5300800969998818
181.5070145719801	1	learning	violation	2	A	29	scene	indoor	1	0.5261212230252568
184.50697701299214	1	learning	violation	2	B	29	scene	indoor	1	0.5871665680024307
187.50693198500085	1	learning	nonviolation	3	A	77	scene	indoor	1	0.8982078599801753
190.50689387199242	1	learning	nonviolation	3	B	77	scene	indoor	1	0.5962463330070022
193.50685915199574	1	learning	nonviolation	4	A	75	scene	outdoor	1	0.6272790179937147
196.50681405398063	1	learning	nonviolation	4	B	75	scene	indoor	1	0.5403272820112761
199.50676811300215	1	learning	nonviolation	4	A	74	scene	outdoor	1	0.6883740880002733
202.4900560340029	1	learning	nonviolation	4	B	74	scene	outdoor	1	0.7240866209904198
205.49001832000798	1	learning	violation	3	A	28	scene	outdoor	1	0.7291203629865777
208.4899818440026	1	learning	violation	3	B	28	scene	indoor	1	0.8901630500040483
211.48992930600068	1	learning	violation	4	A	25	scene	indoor	1	0.5092116119922139
214.4898919849948	1	learning	violation	4	B	25	scene	outdoor	1	0.5192450690083206
217.48984895899773	1	learning	violation	3	A	29	scene	indoor	1	0.5012931359815411
220.489813519991	1	learning	violation	3	B	29	scene	indoor	1	0.6243263850046787
223.48978254900433	1	learning	nonviolation	3	A	73	scene	outdoor	1	0.7073587990016676
226.48974652797915	1	learning	nonviolation	3	B	73	scene	indoor	1	0.5654045860283077
229.48970169300446	1	restudy	nonviolation	5	B	74	scene	outdoor	1	0.6264475159987342
232.4896617780032	1	learning	violation	3	A	26	scene	outdoor	1	0.44248705299105495
235.48962310599742	1	learning	violation	3	B	26	scene	outdoor	1	0.4285248550004326
238.48957631899972	1	learning	violation	3	A	27	scene	indoor	1	0.5535692679986823
241.489538934984	1	learning	violation	3	B	27	scene	outdoor	1	0.430604798020795
244.48949579900363	1	learning	violation	4	A	28	scene	outdoor	1	0.4036505589901935
247.48945736300084	1	learning	violation	4	B	28	scene	indoor	1	0.5666896110051312
250.48942009400344	1	learning	violation	2	A	30	scene	indoor	1	0.5607259800017346
253.4893782839936	1	learning	violation	2	B	30	scene	indoor	1	0.6557671519985888
256.4893417120038	1	learning	violation	2	A	31	scene	outdoor	1	0.41581031697569415
259.48929781399784	1	learning	violation	2	B	31	scene	indoor	1	0.5028530900017358
262.4892571799864	1	learning	nonviolation	3	A	76	scene	indoor	1	0.5218972620205022
265.48921543499455	1	learning	nonviolation	3	B	76	scene	outdoor	1	0.4309313590056263
268.48918784598936	1	violation	violation	5	A	25	scene	indoor	1	0.4609583470155485
271.48913358000567	1	violation	violation	1	X	25	face	male	1	0.8080180299875792
274.4890951279958	1	learning	violation	2	A	32	scene	outdoor	1	0.5390524219837971
277.48905352599104	1	learning	violation	2	B	32	scene	outdoor	1	0.4900968940055464
280.4890153129818	1	learning	nonviolation	4	A	73	scene	outdoor	1	0.5641368830110878
283.488976683002	1	learning	nonviolation	4	B	73	scene	indoor	1	0.5651765149959829
286.4889423739805	1	learning	nonviolation	4	A	77	scene	indoor	1	0.5682126530155074
289.4888964270067	1	learning	nonviolation	4	B	77	scene	indoor	1	0.5132560310012195
292.48885541400523	1	restudy	nonviolation	5	B	75	scene	indoor	1	0.4892997839779128
295.4888132479973	1	learning	violation	4	A	29	scene	indoor	1	0.44928913298645057
298.48876937798923	1	learning	violation	4	B	29	scene	indoor	1	0.5503812780079897
301.4887524099904	1	learning	nonviolation	4	A	76	scene	indoor	1	0.4734076409949921
304.4887121460051	1	learning	nonviolation	4	B	76	scene	outdoor	1	0.6454438669898082
307.48865253399714	1	learning	violation	4	A	27	scene	indoor	1	0.5115058459923603
310.48861038099864	1	learning	violation	4	B	27	scene	outdoor	1	0.521548016986344
313.48857085898635	1	learning	violation	3	A	30	scene	indoor	1	0.4595840450201649
316.488537266996	1	learning	violation	3	B	30	scene	indoor	1	0.5936158100084867
319.48848647699924	1	restudy	nonviolation	6	B	74	scene	outdoor	1	0.5886699660040904
322.48845579798217	1	restudy	nonviolation	5	B	73	scene	indoor	1	0.5086988620168995
325.48841587197967	1	learning	violation	3	A	31	scene	outdoor	1	0.5467409350094385
328.48837021799415	1	learning	violation	3	B	31	scene	indoor	1	0.5047905709943734
331.4883308539865	1	learning	violation	4	A	26	scene	outdoor	1	0.5608267410134431
334.4883170219837	1	learning	violation	4	B	26	scene	outdoor	1	0.4748643930070102
337.48824859000166	1	restudy	nonviolation	5	B	76	scene	outdoor	1	0.4749329350015614
340.48820883999	1	restudy	violation	5	B	25	scene	outdoor	1	0.4599519839975983
343.48816526800516	1	learning	violation	4	A	30	scene	indoor	1	0.5729960019816644
346.4881305079907	1	learning	violation	4	B	30	scene	indoor	1	0.5440250870015007
349.48808591399575	1	violation	violation	5	A	26	scene	outdoor	1	0.457074914011173
352.4880412869971	1	violation	violation	1	X	26	face	male	1	0.6401231150084641
355.48800879999186	1	violation	violation	5	A	28	scene	outdoor	1	0.4321497229975648
358.48796361999115	1	violation	violation	1	X	28	face	female	1	0.6471989359997679
361.4879183259909	1	violation	violation	5	A	29	scene	indoor	1	0.5062408070079982
364.487880375993	1	violation	violation	1	X	29	face	female	1	0.5622853839886375
367.4878503500077	1	learning	violation	3	A	32	scene	outdoor	1	0.6473192499834113
370.48780048999464	1	learning	violation	3	B	32	scene	outdoor	1	0.5713606619974598
373.4877601490007	1	restudy	violation	5	B	28	scene	indoor	1	0.5984037999878637
376.4877197349852	1	restudy	nonviolation	6	B	75	scene	indoor	1	0.6034420600044541
379.48767951098847	1	restudy	violation	5	B	26	scene	outdoor	1	0.4584846130164806
382.48764447099535	1	violation	violation	5	A	27	scene	indoor	1	0.4975226520036813
385.4876086509903	1	violation	violation	1	X	27	face	male	1	0.6775599239917938
388.4875573169848	1	restudy	nonviolation	5	B	77	scene	indoor	1	0.5566049299959559
391.4875301340071	1	violation	violation	6	A	25	scene	indoor	1	0.6576372999988962
394.4874762260006	1	violation	violation	1	Y	25	face	male	1	0.7566879359947052
397.4874354889908	1	learning	violation	4	A	31	scene	outdoor	1	0.6047304910025559
400.48740292398725	1	learning	violation	4	B	31	scene	indoor	1	0.7177649950026534
403.48735166300315	1	violation	violation	6	A	26	scene	outdoor	1	0.619814930978464
406.48731264000526	1	violation	violation	1	Y	26	face	male	1	0.5988561819831375
409.4872743189917	1	restudy	nonviolation	6	B	73	scene	indoor	1	0.5928942289901897
412.4872326269978	1	restudy	nonviolation	6	B	76	scene	outdoor	1	0.6039392429811414
415.48718996698153	1	learning	nonviolation	2	A	78	scene	indoor	1	0.8729833480028901
418.48714825700165	1	learning	nonviolation	2	B	78	scene	indoor	1	0.5460227720031979
421.48711363499746	1	learning	nonviolation	2	A	79	scene	outdoor	1	0.5659879430022556
424.4870819379866	1	learning	nonviolation	2	B	79	scene	outdoor	1	0.6760918509971816
427.48702813300764	1	violation	violation	6	A	28	scene	outdoor	1	0.531138980994001
430.48699139099335	1	violation	violation	1	Y	28	face	female	1	0.5821797779935878
433.48695252600015	1	violation	violation	5	A	30	scene	indoor	1	0.5642113880021498
436.4869081919896	1	violation	violation	1	X	30	face	female	1	0.5952618769952096
439.4868657379993	1	learning	nonviolation	2	A	80	scene	indoor	1	0.5593038130027708
442.4868433490046	1	learning	nonviolation	2	B	80	scene	outdoor	1	0.5573265010025352
445.48678451697924	1	learning	violation	4	A	32	scene	outdoor	1	0.8503866150276735
448.4867539120023	1	learning	violation	4	B	32	scene	outdoor	1	0.9534196449967568
451.4867101449927	1	restudy	violation	5	B	29	scene	indoor	1	0.5314615209936164
454.4866693099903	1	learning	nonviolation	3	A	80	scene	indoor	1	0.6555036499921698
457.4866262519791	1	learning	nonviolation	3	B	80	scene	outdoor	1	0.4395493620249909
460.4865862309816	1	restudy	violation	6	B	26	scene	outdoor	1	0.5375853470177391
463.4865566439985	1	violation	violation	5	A	32	scene	outdoor	1	0.4296132359886542
466.48650204998563	1	violation	violation	1	X	32	face	male	1	0.5456731820013374
469.48646138000186	1	learning	nonviolation	3	A	79	scene	outdoor	1	0.4987171519896947
472.48642269099946	1	learning	nonviolation	3	B	79	scene	outdoor	1	0.4437530389986932
475.48638169799233	1	restudy	nonviolation	6	B	77	scene	indoor	1	0.6007926879974548
478.48636437099776	1	restudy	violation	5	B	27	scene	outdoor	1	0.486810375994537
481.4863078749913	1	restudy	violation	6	B	25	scene	outdoor	1	0.5368667930015363
484.4862740770041	1	learning	nonviolation	4	A	80	scene	indoor	1	0.547901151003316
487.4862301799876	1	learning	nonviolation	4	B	80	scene	outdoor	1	0.4669475950067863
490.48617678100715	1	violation	violation	5	A	31	scene	outdoor	1	0.4340081379923504
493.4861347579863	1	violation	violation	1	X	31	face	female	1	0.5320485630072653
496.4860967419809	1	restudy	violation	6	B	28	scene	indoor	1	0.5270875430142041
499.4860614209902	1	restudy	nonviolation	5	B	80	scene	outdoor	1	0.5041222230065614
502.48601532299654	1	restudy	violation	5	B	30	scene	indoor	1	0.5381673820083961
505.4859734329802	1	violation	violation	6	A	29	scene	indoor	1	0.6642079040175304
508.4859344619909	1	violation	violation	1	Y	29	face	female	1	0.5373147060163319
511.4858970610076	1	learning	nonviolation	3	A	78	scene	indoor	1	0.4572831409750506
514.4858638269943	1	learning	nonviolation	3	B	78	scene	indoor	1	0.6173145179927815
517.4858131379879	1	restudy	violation	5	B	32	scene	outdoor	1	0.6513694210152607
520.4857729969954	1	learning	nonviolation	4	A	79	scene	outdoor	1	0.5984083990042564
523.485730490007	1	learning	nonviolation	4	B	79	scene	outdoor	1	0.565476238989504
526.4856898410071	1	restudy	nonviolation	6	B	80	scene	outdoor	1	0.4894937649951317
529.4856507600052	1	learning	nonviolation	4	A	78	scene	indoor	1	0.8365300399891566
532.4856106989901	1	learning	nonviolation	4	B	78	scene	indoor	1	0.6325721009925473
535.4855675910076	1	violation	violation	6	A	32	scene	outdoor	1	0.5656447969959117
538.4855378189823	1	violation	violation	1	Y	32	face	male	1	0.6416496059973724
541.4854898689955	1	restudy	nonviolation	5	B	79	scene	outdoor	1	0.5806962859933265
544.4854696529801	1	restudy	nonviolation	5	B	78	scene	indoor	1	0.4787136200175155
547.4854157929948	1	restudy	violation	6	B	32	scene	outdoor	1	0.7587709650106262
550.4853685190028	1	restudy	nonviolation	6	B	79	scene	outdoor	1	0.5268202409788499
553.4853286290017	1	restudy	violation	5	B	31	scene	indoor	1	0.5568588140013162
556.4852935659874	1	restudy	nonviolation	6	B	78	scene	indoor	1	0.9918891850102228
559.4852536749968	1	violation	violation	6	A	30	scene	indoor	1	0.8859336790046655
562.4852144169854	1	violation	violation	1	Y	30	face	female	1	0.4879711950197816
565.4851650149794	1	violation	violation	6	A	27	scene	indoor	1	0.676023691019509
568.4851243979938	1	violation	violation	1	Y	27	face	male	1	0.4570667629886884
571.4850829289935	1	violation	violation	6	A	31	scene	outdoor	1	0.5551060469879303
574.4850632919987	1	violation	violation	1	Y	31	face	female	1	0.6231248969852459
577.485004777991	1	restudy	violation	6	B	29	scene	indoor	1	0.43618591301492415
580.4849619159941	1	restudy	violation	6	B	30	scene	indoor	1	0.6272260519908741
583.4849280079942	1	restudy	violation	6	B	27	scene	outdoor	1	0.4822591519914568
586.4848863859953	1	restudy	violation	6	B	31	scene	indoor	1	0.5553089629975148
