onset	duration	trial_type	condition	repetition	pairmate	pairID	category	subcategory	response_accuracy	response_time
13.50401161701302	1	prelearning	nonviolation	1	A	96	scene	indoor	1	0.8132522079977207
16.503975811996494	1	prelearning	nonviolation	1	A	93	scene	outdoor	1	0.4252158500021324
19.50393383699702	1	prelearning	violation	1	A	41	scene	outdoor	1	0.4492924130172469
22.50389716500649	1	prelearning	violation	1	B	48	scene	outdoor	1	0.5873702800017782
25.503860438009724	1	prelearning	nonviolation	1	A	95	scene	outdoor	1	0.5734078210080042
28.503815783013124	1	prelearning	violation	1	A	47	scene	indoor	1	0.5284463489952032
31.503780416998783	1	prelearning	violation	1	A	45	scene	indoor	1	0.6014846470206976
34.50373949701316	1	prelearning	nonviolation	1	A	92	scene	indoor	1	0.5815332570055034
37.5037002809986	1	prelearning	nonviolation	1	B	95	scene	indoor	1	0.545567100023618
40.50365532000433	1	prelearning	violation	1	B	41	scene	indoor	1	0.5056106090196408
43.50361964601325	1	prelearning	nonviolation	1	B	91	scene	outdoor	1	0.5146422639954835
46.50358933201642	1	prelearning	violation	1	A	44	scene	indoor	1	0.6676775979867671
49.50354013600736	1	prelearning	nonviolation	1	B	96	scene	indoor	1	0.4797286450047977
52.50349787500454	1	prelearning	nonviolation	1	A	90	scene	outdoor	1	0.4407670740038157
55.503462054999545	1	prelearning	nonviolation	1	A	89	scene	outdoor	1	0.5818086870131083
58.503418724023504	1	prelearning	violation	1	B	42	scene	outdoor	0	0.4928518800006714
61.503382171998965	1	prelearning	violation	1	B	47	scene	outdoor	1	0.4878845640050713
64.50333952700021	1	prelearning	violation	1	B	45	scene	indoor	1	0.5329320120217744
67.50330215299618	1	prelearning	nonviolation	1	B	89	scene	indoor	1	0.6219648640253581
70.50326102800318	1	prelearning	nonviolation	1	A	94	scene	indoor	1	0.5150090490060393
73.50322914801654	1	prelearning	violation	1	A	43	scene	outdoor	1	0.4440433419949841
76.50318127201172	1	prelearning	violation	1	A	42	scene	outdoor	1	0.5480877569934819
79.50315438202233	1	prelearning	violation	1	B	44	scene	indoor	1	0.4831118469883222
82.50310241201079	1	prelearning	violation	1	B	43	scene	outdoor	1	0.6941714569984471
85.50306120602181	1	prelearning	nonviolation	1	B	93	scene	outdoor	1	0.4402123159961775
88.50302122099674	1	prelearning	violation	1	B	46	scene	indoor	1	0.5742530800052918
91.50298172901968	1	prelearning	nonviolation	1	B	90	scene	outdoor	1	0.4582865249831229
94.50294113400741	1	prelearning	violation	1	A	48	scene	indoor	1	0.5743309560057241
97.5029014449974	1	prelearning	violation	1	A	46	scene	outdoor	1	0.4323731650074478
100.50286186000449	1	prelearning	nonviolation	1	A	91	scene	indoor	1	0.5154173019982409
103.50283357402077	1	prelearning	nonviolation	1	B	94	scene	indoor	1	0.5634372549830005
106.50278357599746	1	prelearning	nonviolation	1	B	92	scene	outdoor	1	0.4674905830179341
109.50274052101305	1	learning	nonviolation	2	A	89	scene	outdoor	1	0.7555314739875029
112.50270157001795	1	learning	nonviolation	2	B	89	scene	indoor	1	0.8785747869987972
115.50266221401398	1	learning	violation	2	A	41	scene	outdoor	1	0.5446148159971926
118.50262349902188	1	learning	violation	2	B	41	scene	indoor	1	0.5446499679819681
121.50258165900594	1	learning	nonviolation	2	A	90	scene	outdoor	1	0.45969435299048206
124.50253898001392	1	learning	nonviolation	2	B	90	scene	outdoor	1	0.5417440309829544
127.50250024499836	1	learning	nonviolation	2	A	91	scene	indoor	1	0.8417755550181028
130.50245808399632	1	learning	nonviolation	2	B	91	scene	outdoor	1	0.40081976700457744
133.50243377801962	1	learning	nonviolation	2	A	92	scene	indoor	1	0.6558417049818672
136.50238624901976	1	learning	nonviolation	2	B	92	scene	outdoor	1	0.4778940609830897
139.50234254600946	1	learning	violation	2	A	42	scene	outdoor	1	0.3949434999958612
142.502301163011	1	learning	violation	2	B	42	scene	outdoor	0	0.6109816459938884
145.5022749790223	1	learning	nonviolation	3	A	90	scene	outdoor	1	0.5230047859949991
148.50223841701518	1	learning	nonviolation	3	B	90	scene	outdoor	1	0.7940401129890233
151.50218296301318	1	learning	nonviolation	3	A	91	scene	indoor	1	0.6020968619850464
154.5021411860071	1	learning	nonviolation	3	B	91	scene	outdoor	1	0.3431414370134007
157.50210062399856	1	learning	violation	2	A	43	scene	outdoor	1	0.4781839180213865
160.50205902001468	1	learning	violation	2	B	43	scene	outdoor	1	0.5942215340037365
163.50203077401966	1	learning	nonviolation	2	A	93	scene	outdoor	1	0.5042529519996606
166.50199081801108	1	learning	nonviolation	2	B	93	scene	outdoor	1	0.4742943820019718
169.5019443240017	1	learning	violation	2	A	44	scene	indoor	1	0.4483620859973598
172.50189982002485	1	learning	violation	2	B	44	scene	indoor	1	0.5833830989722628
175.50185939800576	1	learning	violation	3	A	43	scene	outdoor	1	0.4434228600002825
178.50182332302208	1	learning	violation	3	B	43	scene	outdoor	1	0.4854613979987335
181.50177784101103	1	learning	violation	2	A	45	scene	indoor	1	0.5655046440078877
184.5017354120209	1	learning	violation	2	B	45	scene	indoor	1	0.7245496739924421
187.50169568200363	1	learning	nonviolation	4	A	91	scene	indoor	1	0.7125860590022057
190.50165622300116	1	learning	nonviolation	4	B	91	scene	outdoor	1	0.3626322190102656
193.50161559900155	1	learning	nonviolation	3	A	89	scene	outdoor	1	0.4936716060037725
196.5015835810045	1	learning	nonviolation	3	B	89	scene	indoor	1	0.5317036570049822
199.50153607199903	1	learning	violation	3	A	41	scene	outdoor	1	0.5237496409972664
202.50149362199588	1	learning	violation	3	B	41	scene	indoor	1	0.5357908300065901
205.50145321601303	1	learning	nonviolation	3	A	92	scene	indoor	1	0.7718352589872666
208.5014150979987	1	learning	nonviolation	3	B	92	scene	outdoor	1	0.4478742440114729
211.50137615200947	1	learning	violation	3	A	44	scene	indoor	1	0.8509145250136498
214.50133376600567	1	learning	violation	3	B	44	scene	indoor	1	0.6149545790103729
217.50130345000068	1	learning	violation	3	A	45	scene	indoor	1	0.7829873959999532
220.5012679829961	1	learning	violation	3	B	45	scene	indoor	1	0.6090455640223809
223.5012331310136	1	learning	nonviolation	4	A	90	scene	outdoor	1	0.4550539129995741
226.50117192699693	1	learning	nonviolation	4	B	90	scene	outdoor	1	0.5131100900180172
229.50113207701358	1	learning	nonviolation	3	A	93	scene	outdoor	1	0.6321556330076419
232.50109278599845	1	learning	nonviolation	3	B	93	scene	outdoor	1	0.4851993820047937
235.50105592102042	1	learning	violation	3	A	42	scene	outdoor	1	0.4302324680029415
238.50101443199677	1	learning	violation	3	B	42	scene	outdoor	1	0.8292442430101801
241.5009728570003	1	learning	violation	2	A	46	scene	outdoor	1	0.3863188429968432
244.50093150101017	1	learning	violation	2	B	46	scene	indoor	1	0.5433596750081051
247.50089160801144	1	learning	nonviolation	4	A	92	scene	indoor	1	0.6164028339844663
250.50084704702027	1	learning	nonviolation	4	B	92	scene	outdoor	1	0.8234448109869845
253.50081064301776	1	learning	violation	2	A	47	scene	indoor	1	0.572481067996705
256.50077859000885	1	learning	violation	2	B	47	scene	outdoor	1	0.3825123370043002
259.50073948901263	1	learning	violation	4	A	41	scene	outdoor	1	0.42055326901027
262.500690128014	1	learning	violation	4	B	41	scene	indoor	1	0.6676032730028965
265.50066054300993	1	learning	violation	3	A	46	scene	outdoor	1	0.6086307470104657
268.50060581302387	1	learning	violation	3	B	46	scene	indoor	1	0.4826273449871224
271.50056648699683	1	learning	violation	2	A	48	scene	indoor	1	0.5467257550044451
274.5005280309997	1	learning	violation	2	B	48	scene	outdoor	1	1.0037513880233746
277.5004886670213	1	restudy	nonviolation	5	B	91	scene	outdoor	1	0.6558113249775488
280.500448937004	1	learning	violation	3	A	47	scene	indoor	1	0.5358451220090501
283.500407405023	1	learning	violation	3	B	47	scene	outdoor	1	0.4848861909995321
286.5003804300213	1	learning	violation	4	A	43	scene	outdoor	1	0.4839181879942771
289.50032675301185	1	learning	violation	4	B	43	scene	outdoor	1	0.5429835219983943
292.5002855689964	1	learning	violation	4	A	44	scene	indoor	1	0.5840140410000458
295.5002525940072	1	learning	violation	4	B	44	scene	indoor	1	0.6170481320004909
298.50020689400844	1	learning	nonviolation	4	A	89	scene	outdoor	1	0.5240923099918291
301.50016259300173	1	learning	nonviolation	4	B	89	scene	indoor	1	0.8611314400041009
304.500128773012	1	learning	violation	4	A	42	scene	outdoor	1	0.410172092000721
307.5000822540024	1	learning	violation	4	B	42	scene	outdoor	0	0.9012187010084745
310.5000499400194	1	learning	nonviolation	4	A	93	scene	outdoor	1	0.4082496369956061
313.49999911300256	1	learning	nonviolation	4	B	93	scene	outdoor	1	0.4663055250130128
316.4832830149972	1	restudy	nonviolation	5	B	90	scene	outdoor	1	0.4839479530055542
319.4832443280029	1	violation	violation	5	A	41	scene	outdoor	1	0.4030553339980543
322.4998886329995	1	violation	violation	1	X	41	face	female	1	0.7374120910244528
325.49984024101286	1	learning	violation	4	A	45	scene	indoor	1	0.7844629540049937
328.483123359998	1	learning	violation	4	B	45	scene	indoor	1	0.5391778180201072
331.4830932330224	1	learning	violation	3	A	48	scene	indoor	1	1.4132083829899784
334.48304783401545	1	learning	violation	3	B	48	scene	outdoor	1	0.5282608229899779
337.48301244500914	1	learning	violation	4	A	46	scene	outdoor	1	0.8593163879995699
340.4829653570196	1	learning	violation	4	B	46	scene	indoor	1	0.8183360769762658
343.48292680300074	1	restudy	nonviolation	5	B	93	scene	outdoor	1	0.4773763040138874
346.48288696300006	1	restudy	nonviolation	5	B	89	scene	indoor	1	0.5984166080015711
349.4828464710154	1	violation	violation	5	A	43	scene	outdoor	1	0.6894576890044846
352.48280571601936	1	violation	violation	1	X	43	face	male	1	0.5425000499817543
355.48277558101114	1	restudy	nonviolation	5	B	92	scene	outdoor	1	0.5495345589879435
358.4827280540194	1	restudy	nonviolation	6	B	91	scene	outdoor	1	0.415579277992947
361.4826848380035	1	restudy	nonviolation	6	B	93	scene	outdoor	1	0.5436201700067613
364.4826485119993	1	violation	violation	5	A	42	scene	outdoor	1	0.5326188540202565
367.4826133660099	1	violation	violation	1	X	42	face	male	1	0.4606943769904319
370.4825666460092	1	restudy	nonviolation	6	B	90	scene	outdoor	1	0.4107450500014238
373.4825305730046	1	learning	violation	4	A	47	scene	indoor	1	0.581778262014268
376.48248312401114	1	learning	violation	4	B	47	scene	outdoor	1	0.5068190630117897
379.4824455270136	1	restudy	nonviolation	6	B	89	scene	indoor	1	0.6388649719883688
382.48240207502397	1	violation	violation	5	A	44	scene	indoor	1	0.5229040309786797
385.4823637469962	1	violation	violation	1	X	44	face	female	1	0.4709469370136503
388.48231975900126	1	violation	violation	5	A	47	scene	indoor	1	0.473987303004833
391.4822786330187	1	violation	violation	1	X	47	face	male	1	0.9340290139953141
394.4822532770049	1	learning	violation	4	A	48	scene	indoor	1	0.6680611640040297
397.4822013360099	1	learning	violation	4	B	48	scene	outdoor	0	0.4691110909916461
400.48217865201883	1	learning	nonviolation	2	A	94	scene	indoor	1	0.5391353470040485
403.48211907199584	1	learning	nonviolation	2	B	94	scene	indoor	1	0.6181930120219477
406.482079237001	1	violation	violation	5	A	46	scene	outdoor	1	0.6162333289976232
409.48204751999583	1	violation	violation	1	X	46	face	female	1	0.563266093027778
412.4820027950045	1	violation	violation	5	A	45	scene	indoor	1	0.5933139029948507
415.48196651201584	1	violation	violation	1	X	45	face	female	1	0.43535326299024746
418.48191829799913	1	restudy	violation	5	B	47	scene	outdoor	1	0.4763989450002555
421.4818952900241	1	restudy	violation	5	B	41	scene	indoor	1	0.5924201309971977
424.481838312	1	restudy	violation	5	B	45	scene	indoor	1	0.6484795840224251
427.48180166800734	1	restudy	nonviolation	6	B	92	scene	outdoor	1	0.4585149589984212
430.48176824100665	1	restudy	violation	5	B	43	scene	outdoor	1	0.486548353015678
433.4817258170224	1	violation	violation	5	A	48	scene	indoor	1	0.5795884669933002
436.4816746970173	1	violation	violation	1	X	48	face	male	1	0.7196458159887698
439.4816331120092	1	restudy	violation	5	B	46	scene	indoor	1	0.5436852260027081
442.48160147300223	1	violation	violation	6	A	43	scene	outdoor	1	0.5807164020079654
445.4815523569996	1	violation	violation	1	Y	43	face	male	1	0.5597650760028046
448.4815110580239	1	violation	violation	6	A	45	scene	indoor	1	0.61380957099027
451.4814730150101	1	violation	violation	1	Y	45	face	female	1	0.4618480050121434
454.4814284980239	1	learning	nonviolation	3	A	94	scene	indoor	1	0.489887938980246
457.4813954150013	1	learning	nonviolation	3	B	94	scene	indoor	1	0.6219244149979204
460.4813480040175	1	restudy	violation	5	B	44	scene	indoor	1	0.5059679539990611
463.4813126270019	1	restudy	violation	5	B	42	scene	outdoor	0	0.4730090340017341
466.4812673790148	1	learning	nonviolation	2	A	95	scene	outdoor	1	0.6220518689951859
469.4812277090096	1	learning	nonviolation	2	B	95	scene	indoor	1	0.5550927960139234
472.481187168014	1	violation	violation	6	A	41	scene	outdoor	1	0.5021357460063882
475.48115960799623	1	violation	violation	1	Y	41	face	female	1	0.5631599810149055
478.4811138530204	1	violation	violation	6	A	47	scene	indoor	1	1.053211480990285
481.48106701101636	1	violation	violation	1	Y	47	face	male	1	0.6412565360078588
484.4810251360177	1	violation	violation	6	A	46	scene	outdoor	1	0.8202994469902478
487.4809823929973	1	violation	violation	1	Y	46	face	female	1	0.6563424440100789
490.4809507860045	1	restudy	violation	6	B	45	scene	indoor	1	0.5423759139957838
493.4809123520099	1	learning	nonviolation	4	A	94	scene	indoor	1	0.7744054289942142
496.48086353502	1	learning	nonviolation	4	B	94	scene	indoor	1	0.6004688940010965
499.4808202710119	1	learning	nonviolation	2	A	96	scene	indoor	1	0.714508178003598
502.4807800230046	1	learning	nonviolation	2	B	96	scene	indoor	1	0.8075477090023924
505.480748358008	1	learning	nonviolation	3	A	95	scene	outdoor	1	0.5995818620140199
508.48070100200135	1	learning	nonviolation	3	B	95	scene	indoor	1	0.5706231830117758
511.48066113900865	1	violation	violation	6	A	44	scene	indoor	1	0.4906655189988669
514.4806189009978	1	violation	violation	1	Y	44	face	female	1	0.6287079970061313
517.4805793970008	1	restudy	violation	5	B	48	scene	outdoor	1	0.7617465330113191
520.4805476670153	1	learning	nonviolation	3	A	96	scene	indoor	1	0.4987783700053114
523.4804974360159	1	learning	nonviolation	3	B	96	scene	indoor	1	0.9078266329888721
526.4804572669964	1	restudy	violation	6	B	43	scene	outdoor	1	0.5248724300181493
529.4804231990129	1	restudy	violation	6	B	41	scene	indoor	1	0.5449054070049897
532.4803766800032	1	learning	nonviolation	4	A	96	scene	indoor	1	0.6839549680007622
535.4803373489995	1	learning	nonviolation	4	B	96	scene	indoor	1	0.6729987150174566
538.4802940680238	1	restudy	nonviolation	5	B	94	scene	indoor	1	0.8380378129950259
541.4802636210225	1	violation	violation	6	A	42	scene	outdoor	1	0.5240750389930326
544.4802140690153	1	violation	violation	1	Y	42	face	male	1	0.5541198840073776
547.4801746080046	1	learning	nonviolation	4	A	95	scene	outdoor	1	0.502152675006073
550.4801336270175	1	learning	nonviolation	4	B	95	scene	indoor	1	0.6431937049783301
553.4800909100159	1	restudy	violation	6	B	46	scene	indoor	1	0.5292457879986614
556.4800555160036	1	restudy	violation	6	B	42	scene	outdoor	1	0.6543001630052458
559.4800261500059	1	restudy	nonviolation	5	B	96	scene	indoor	1	0.4983048599970061
562.4799707430066	1	restudy	violation	6	B	47	scene	outdoor	1	0.4753596920054406
565.479932029004	1	restudy	violation	6	B	44	scene	indoor	1	0.5084073280158918
568.4798912040133	1	restudy	nonviolation	5	B	95	scene	indoor	1	0.4714446029975079
571.4798506590014	1	restudy	nonviolation	6	B	96	scene	indoor	1	0.8654840420058463
574.4798174060123	1	violation	violation	6	A	48	scene	indoor	1	0.4735158539842814
577.4797696860041	1	violation	violation	1	Y	48	face	male	1	0.5335655850067269
580.4797284580128	1	restudy	nonviolation	6	B	94	scene	indoor	1	0.43760609900346026
583.4796871560103	1	restudy	nonviolation	6	B	95	scene	indoor	1	0.4756467739935033
586.4796464920219	1	restudy	violation	6	B	48	scene	outdoor	1	0.5606911849754397
