onset	duration	trial_type	condition	repetition	pairmate	pairID	category	subcategory	response_accuracy	response_time
13.506086085923016	1	prelearning	nonviolation	1	A	53	scene	indoor	1	0.6570768761448562
16.506052047945563	1	prelearning	violation	1	B	3	scene	outdoor	1	0.6850360590033233
19.506009862292558	1	prelearning	violation	1	B	4	scene	indoor	1	0.4910849765874445
22.505968932062387	1	prelearning	nonviolation	1	B	50	scene	outdoor	1	0.5681160138919951
25.505931427236646	1	prelearning	nonviolation	1	A	54	scene	indoor	1	0.5661383150145411
28.505892101209607	1	prelearning	nonviolation	1	B	55	scene	indoor	1	0.5721998298540711
31.505855228286237	1	prelearning	violation	1	B	5	scene	indoor	1	0.4332268368452787
34.50581396697089	1	prelearning	violation	1	A	3	scene	outdoor	1	0.4682769649662077
37.50577207189053	1	prelearning	nonviolation	1	A	49	scene	outdoor	1	0.4963437523692846
40.50573505926877	1	prelearning	violation	1	A	2	scene	indoor	0	0.429361751768738
43.50569597585127	1	prelearning	nonviolation	1	A	52	scene	indoor	1	0.6563966642133892
46.505656339228146	1	prelearning	violation	1	B	6	scene	indoor	1	0.5934406076557934
49.505615005269654	1	prelearning	violation	1	A	4	scene	outdoor	1	0.4564813286997378
52.50557732116431	1	prelearning	nonviolation	1	B	54	scene	outdoor	1	0.5855755819939077
55.50553600210697	1	prelearning	nonviolation	1	A	50	scene	indoor	1	0.5555586600676179
58.50549760600553	1	prelearning	violation	1	A	8	scene	indoor	1	0.5166004481725395
61.50545887090265	1	prelearning	nonviolation	1	A	55	scene	outdoor	1	0.5146479681134224
64.50542171206324	1	prelearning	nonviolation	1	B	52	scene	indoor	1	0.39167145919054747
67.50537947425619	1	prelearning	nonviolation	1	A	56	scene	outdoor	1	0.5166861149482429
70.50534017803147	1	prelearning	nonviolation	1	B	51	scene	outdoor	1	0.5237529859878123
73.50530059589073	1	prelearning	nonviolation	1	B	56	scene	outdoor	1	0.5098037151619792
76.50526050990447	1	prelearning	violation	1	B	7	scene	outdoor	1	0.5818372662179172
79.50522371800615	1	prelearning	violation	1	A	1	scene	indoor	1	0.7628732151351869
82.50518121896313	1	prelearning	nonviolation	1	B	49	scene	indoor	1	0.5849168342538178
85.50514129595831	1	prelearning	violation	1	A	7	scene	outdoor	1	0.5029669143259525
88.50510316295548	1	prelearning	violation	1	A	5	scene	indoor	1	0.3919940129853785
91.50506160827355	1	prelearning	nonviolation	1	A	51	scene	outdoor	1	0.5010337717831135
94.50502015417442	1	prelearning	nonviolation	1	B	53	scene	indoor	0	0.5080736950039864
97.5049807582982	1	prelearning	violation	1	A	6	scene	outdoor	1	0.41618761885911226
100.50494010327385	1	prelearning	violation	1	B	1	scene	outdoor	1	0.4260797086171806
103.5049016489647	1	prelearning	violation	1	B	2	scene	indoor	1	0.4302214039489627
106.504862644244	1	prelearning	violation	1	B	8	scene	outdoor	1	0.4302336438558996
109.50482271797956	1	learning	violation	2	A	1	scene	indoor	1	0.5842794813215733
112.50478290813044	1	learning	violation	2	B	1	scene	outdoor	1	0.4833188438788056
115.50474281515926	1	learning	violation	2	A	2	scene	indoor	1	0.5743728470988572
118.50470279995352	1	learning	violation	2	B	2	scene	indoor	1	0.499407394323498
121.50466314516962	1	learning	violation	2	A	3	scene	outdoor	1	0.6324383406899869
124.50462352624164	1	learning	violation	2	B	3	scene	outdoor	1	0.4524769876152277
127.50458304397762	1	learning	nonviolation	2	A	49	scene	outdoor	1	0.5225199898704886
130.50454264786094	1	learning	nonviolation	2	B	49	scene	indoor	1	0.5135743343271315
133.50450290786102	1	learning	nonviolation	2	A	50	scene	indoor	1	0.6246077599935234
136.50446372199804	1	learning	nonviolation	2	B	50	scene	outdoor	1	0.5185567270964384
139.50442289421335	1	learning	nonviolation	2	A	51	scene	outdoor	1	0.5376075827516615
142.50438084406778	1	learning	nonviolation	2	B	51	scene	outdoor	1	0.5197003898210824
145.50434298813343	1	learning	violation	2	A	4	scene	outdoor	1	0.7238465547561646
148.50430206907913	1	learning	violation	2	B	4	scene	indoor	1	0.4778070179745555
151.50426279520616	1	learning	violation	3	A	1	scene	indoor	1	0.5258440370671451
154.5042220731266	1	learning	violation	3	B	1	scene	outdoor	1	0.4158856109715998
157.5041836341843	1	learning	nonviolation	3	A	51	scene	outdoor	1	0.4489305028691888
160.50414255587384	1	learning	nonviolation	3	B	51	scene	outdoor	1	0.4739603931084275
163.50410163030028	1	learning	violation	3	A	2	scene	indoor	1	0.41600136179476976
166.50406170822683	1	learning	violation	3	B	2	scene	indoor	1	0.5700424220412971
169.50402102805677	1	learning	nonviolation	2	A	52	scene	indoor	0	0.3890926870517433
172.50398063706234	1	learning	nonviolation	2	B	52	scene	indoor	1	0.4521339889615774
175.50394203513858	1	learning	nonviolation	3	A	50	scene	indoor	1	0.5071740229614079
178.50389880128205	1	learning	nonviolation	3	B	50	scene	outdoor	1	0.5402178945951164
181.5038610859774	1	learning	violation	4	A	2	scene	indoor	1	0.5122542902827263
184.50382419116798	1	learning	violation	4	B	2	scene	indoor	1	0.7132815988734365
187.50378043390808	1	learning	violation	2	A	5	scene	indoor	1	0.543377177324146
190.503739405889	1	learning	violation	2	B	5	scene	indoor	1	0.5403769561089575
193.5036976411939	1	learning	violation	3	A	4	scene	outdoor	1	0.4484413899481297
196.50365854986006	1	learning	violation	3	B	4	scene	indoor	1	0.4754486070014536
199.50361906085163	1	learning	nonviolation	3	A	49	scene	outdoor	1	0.3625125261023641
202.50357880489898	1	learning	nonviolation	3	B	49	scene	indoor	1	0.4834745731204748
205.5035384492949	1	learning	nonviolation	3	A	52	scene	indoor	1	0.4625791488215327
208.50349806994203	1	learning	nonviolation	3	B	52	scene	indoor	1	0.4535321719013154
211.50345782097432	1	learning	violation	3	A	3	scene	outdoor	1	0.5196114862337708
214.50341501086947	1	learning	violation	3	B	3	scene	outdoor	1	0.4507035352289677
217.50337695609775	1	learning	nonviolation	4	A	51	scene	outdoor	1	0.4107394078746438
220.50333695020527	1	learning	nonviolation	4	B	51	scene	outdoor	1	0.5967757990583777
223.50329612521455	1	learning	violation	3	A	5	scene	indoor	1	0.3708243849687278
226.5032558091916	1	learning	violation	3	B	5	scene	indoor	1	0.5068566738627851
229.50321539491412	1	learning	violation	2	A	6	scene	outdoor	1	0.4528247881680727
232.50317506911236	1	learning	violation	2	B	6	scene	indoor	1	0.3889423250220716
235.50313259195536	1	learning	nonviolation	2	A	53	scene	indoor	1	0.5009851660579443
238.50309657398608	1	learning	nonviolation	2	B	53	scene	indoor	0	0.4260152401402593
241.5030530071817	1	learning	violation	4	A	4	scene	outdoor	1	0.485061438754201
244.5030129072256	1	learning	violation	4	B	4	scene	indoor	1	0.3869676529429853
247.48630682611838	1	learning	nonviolation	4	A	52	scene	indoor	1	0.4888115641660988
250.50293211406097	1	learning	nonviolation	4	B	52	scene	indoor	1	0.3551913187839091
253.50288839824498	1	learning	nonviolation	4	A	50	scene	indoor	1	0.4452275726944208
256.5028499700129	1	learning	nonviolation	4	B	50	scene	outdoor	1	0.5582778989337385
259.5028176740743	1	learning	nonviolation	2	A	54	scene	indoor	1	0.5214016349054873
262.50277026789263	1	learning	nonviolation	2	B	54	scene	outdoor	1	0.5143534513190389
265.502727793064	1	learning	violation	4	A	1	scene	indoor	1	0.5104778921231627
268.4860216160305	1	learning	violation	4	B	1	scene	outdoor	1	0.4731776458211243
271.48598117614165	1	learning	violation	3	A	6	scene	outdoor	1	0.5071736420504749
274.48593892296776	1	learning	violation	3	B	6	scene	indoor	1	0.5011799279600382
277.4858983838931	1	restudy	nonviolation	5	B	52	scene	indoor	1	0.6292303400114179
280.4858575891704	1	learning	nonviolation	4	A	49	scene	outdoor	1	0.3812686330638826
283.48582063103095	1	learning	nonviolation	4	B	49	scene	indoor	1	0.37629942083731294
286.48584707593545	1	restudy	nonviolation	5	B	51	scene	outdoor	1	0.4402717361226678
289.4857404441573	1	restudy	nonviolation	5	B	50	scene	outdoor	1	0.5153886140324175
292.48569859703997	1	violation	violation	5	A	2	scene	indoor	1	0.4824296501465142
295.4856581198983	1	violation	violation	1	X	2	face	female	1	0.9533874462358654
298.485617345199	1	learning	violation	4	A	3	scene	outdoor	1	0.5445054378360511
301.4855767060071	1	learning	violation	4	B	3	scene	outdoor	1	0.5095482901670039
304.4855377301574	1	learning	nonviolation	3	A	54	scene	indoor	1	0.4585899910889566
307.4854956720956	1	learning	nonviolation	3	B	54	scene	outdoor	1	0.4986463878303766
310.4854532312602	1	learning	violation	4	A	5	scene	indoor	1	0.4516784069128335
313.48541443794966	1	learning	violation	4	B	5	scene	indoor	1	0.4877144489437342
316.485375165008	1	learning	violation	2	A	7	scene	outdoor	1	0.4667195570655167
319.4853332070634	1	learning	violation	2	B	7	scene	outdoor	1	0.5067955101840198
322.4852920412086	1	restudy	nonviolation	6	B	51	scene	outdoor	1	0.3527850727550685
325.4852497549728	1	violation	violation	5	A	3	scene	outdoor	1	0.5708046872168779
328.4852120350115	1	violation	violation	1	X	3	face	male	1	0.5729160578921437
331.48517066892236	1	restudy	nonviolation	6	B	50	scene	outdoor	1	0.5599612412042916
334.4851307240315	1	learning	nonviolation	2	A	55	scene	outdoor	1	0.472011904232204
337.48508750787005	1	learning	nonviolation	2	B	55	scene	indoor	1	0.730068766977638
340.48504898091784	1	violation	violation	5	A	4	scene	outdoor	1	0.5290010012686253
343.48500815592706	1	violation	violation	1	X	4	face	female	1	0.7521267579868436
346.4849676541053	1	learning	nonviolation	3	A	53	scene	indoor	1	0.48416692484170204
349.4849270670675	1	learning	nonviolation	3	B	53	scene	indoor	0	0.4092036159709096
352.48488616012037	1	learning	nonviolation	4	A	54	scene	indoor	1	0.5192607687786222
355.4848456978798	1	learning	nonviolation	4	B	54	scene	outdoor	1	0.4522861293517053
358.48480481794104	1	learning	violation	3	A	7	scene	outdoor	1	0.4963322440162301
361.4847624939866	1	learning	violation	3	B	7	scene	outdoor	1	0.4093661392107606
364.4847215311602	1	learning	violation	4	A	6	scene	outdoor	1	0.3544119247235358
367.4846830950119	1	learning	violation	4	B	6	scene	indoor	1	0.6055279639549553
370.48464203393087	1	violation	violation	5	A	1	scene	indoor	1	0.5854926733300091
373.48460130207235	1	violation	violation	1	X	1	face	male	0	0.6243943208828568
376.4845600030385	1	restudy	nonviolation	5	B	49	scene	indoor	1	0.5475897919386625
379.48451998829836	1	violation	violation	5	A	5	scene	indoor	1	0.6194788976572454
382.48447957588365	1	violation	violation	1	X	5	face	female	1	0.6206625341437757
385.4844385031611	1	restudy	nonviolation	6	B	52	scene	indoor	1	0.5456108250655234
388.4843978611752	1	learning	nonviolation	2	A	56	scene	outdoor	1	0.5377298658713698
391.4843630492687	1	learning	nonviolation	2	B	56	scene	outdoor	1	0.4617704767733812
394.48431571526453	1	restudy	nonviolation	5	B	54	scene	outdoor	1	0.4697635886259377
397.4842758802697	1	violation	violation	5	A	6	scene	outdoor	1	0.4408638519234955
400.484233118128	1	violation	violation	1	X	6	face	female	1	0.6159030948765576
403.48419463308534	1	restudy	violation	5	B	2	scene	indoor	1	0.5079508321359754
406.48415468819434	1	learning	nonviolation	3	A	56	scene	outdoor	1	0.562987077049911
409.48411582503473	1	learning	nonviolation	3	B	56	scene	outdoor	1	0.4990299278870225
412.48407222889364	1	restudy	nonviolation	6	B	49	scene	indoor	1	0.4861260200850666
415.48403157386934	1	learning	violation	2	A	8	scene	indoor	1	0.7100289179943502
418.4839911269955	1	learning	violation	2	B	8	scene	outdoor	1	0.3911493429914117
421.4839504151605	1	restudy	violation	5	B	4	scene	indoor	1	0.4941865960136056
424.48390945000574	1	learning	violation	4	A	7	scene	outdoor	1	0.4762504328973591
427.48386922897765	1	learning	violation	4	B	7	scene	outdoor	1	0.4922720151953399
430.483828315977	1	restudy	violation	5	B	3	scene	outdoor	1	0.6353098680265248
433.48378720507037	1	learning	nonviolation	4	A	53	scene	indoor	1	0.4633633540943265
436.48374644108117	1	learning	nonviolation	4	B	53	scene	indoor	0	0.47745739808306104
439.48370599886397	1	learning	nonviolation	3	A	55	scene	outdoor	1	0.453362753149122
442.48366641718894	1	learning	nonviolation	3	B	55	scene	indoor	1	0.5544725130312145
445.4836242389865	1	violation	violation	6	A	2	scene	indoor	1	0.5545200011692941
448.4835832458921	1	violation	violation	1	Y	2	face	female	1	0.4855657271109522
451.483542074915	1	learning	violation	3	A	8	scene	indoor	1	0.4115971531718969
454.48350155306986	1	learning	violation	3	B	8	scene	outdoor	1	0.5226397239603102
457.4834606000222	1	restudy	violation	5	B	5	scene	indoor	1	0.5086922501213849
460.48341917898506	1	violation	violation	5	A	7	scene	outdoor	1	0.7387253362685442
463.4833770431578	1	violation	violation	1	X	7	face	male	1	0.6637713029049337
466.4833364840597	1	restudy	violation	5	B	1	scene	outdoor	1	0.4558116961270571
469.4832975459285	1	violation	violation	6	A	3	scene	outdoor	1	0.4589271643199026
472.48325652629137	1	violation	violation	1	Y	3	face	male	1	0.6178698828443885
475.48321579303587	1	violation	violation	6	A	5	scene	indoor	1	0.5698484140448272
478.48317485116416	1	violation	violation	1	Y	5	face	female	1	0.7429713038727641
481.48313416820014	1	learning	violation	4	A	8	scene	indoor	1	0.6020096288993955
484.4830933208577	1	learning	violation	4	B	8	scene	outdoor	1	0.4790667183697224
487.4830523179844	1	learning	nonviolation	4	A	56	scene	outdoor	1	0.4571019322611392
490.48301168810576	1	learning	nonviolation	4	B	56	scene	outdoor	1	0.5141373798251152
493.48297077091416	1	restudy	violation	5	B	7	scene	outdoor	1	0.4261822043918073
496.4829302290455	1	restudy	nonviolation	6	B	54	scene	outdoor	1	0.5812151748687029
499.48288710601634	1	restudy	violation	5	B	6	scene	indoor	1	0.7162669152021408
502.4828483960591	1	violation	violation	6	A	4	scene	outdoor	1	0.4903046349063516
505.48280748585233	1	violation	violation	1	Y	4	face	female	1	0.5372693110257387
508.4827669588849	1	restudy	violation	6	B	5	scene	indoor	1	0.4923827489838004
511.48272605426615	1	violation	violation	6	A	1	scene	indoor	1	0.4914237116463482
514.4826850011013	1	violation	violation	1	Y	1	face	male	1	0.6274637561291456
517.4826446222141	1	violation	violation	5	A	8	scene	indoor	1	0.4945041500031948
520.4826034479776	1	violation	violation	1	X	8	face	male	1	0.5565199819393456
523.4825627859682	1	learning	nonviolation	4	A	55	scene	outdoor	1	0.44455947913229465
526.482520129066	1	learning	nonviolation	4	B	55	scene	indoor	1	0.44863186683505774
529.4824811392464	1	restudy	violation	6	B	3	scene	outdoor	1	0.44967684103176
532.482440691907	1	violation	violation	6	A	6	scene	outdoor	1	0.4616810102015734
535.482402401045	1	violation	violation	1	Y	6	face	female	1	0.6807239740155637
538.4823587290011	1	restudy	nonviolation	5	B	53	scene	indoor	0	0.5187959452159703
541.4823196562938	1	restudy	violation	6	B	2	scene	indoor	1	0.6778650525957346
544.4822771772741	1	restudy	nonviolation	5	B	55	scene	indoor	1	0.6578838247805834
547.4822370312177	1	restudy	violation	5	B	8	scene	outdoor	1	0.7129255509935319
550.4821957000531	1	restudy	nonviolation	5	B	56	scene	outdoor	1	0.4029498118907213
553.4821549002081	1	restudy	nonviolation	6	B	53	scene	indoor	0	0.40601808903738856
556.4821176640689	1	restudy	violation	6	B	4	scene	indoor	1	0.4230312909930944
559.4820733452216	1	violation	violation	6	A	8	scene	indoor	1	0.4500913880765438
562.4820300741121	1	violation	violation	1	Y	8	face	male	0	0.39112658193334937
565.4819918600842	1	violation	violation	6	A	7	scene	outdoor	1	0.5351651757955551
568.4819508851506	1	violation	violation	1	Y	7	face	male	1	0.6132062249816954
571.4819095740095	1	restudy	violation	6	B	6	scene	indoor	1	0.5422483710572124
574.4818694912829	1	restudy	nonviolation	6	B	56	scene	outdoor	1	0.4732907046563923
577.4818293652498	1	restudy	violation	6	B	7	scene	outdoor	1	0.5043276329524815
580.4817880112678	1	restudy	nonviolation	6	B	55	scene	indoor	1	0.5193700897507371
583.4817474288866	1	restudy	violation	6	B	8	scene	outdoor	1	0.4574131513945758
586.481705644168	1	restudy	violation	6	B	1	scene	outdoor	1	0.4004593859426677
