onset	duration	trial_type	subcategory	response_accuracy	response_time
13.5004704099847	0.5	object	natural	n/a	n/a
15.017133174987976	0.5	object	manmade	1	0.559688442008337
16.517107521998696	0.5	object	natural	1	0.9227155419939663
18.017089361994294	0.5	object	natural	1	0.5716621940082405
19.50039878199459	0.5	object	natural	1	0.4344295760092791
21.000385702995118	0.5	object	manmade	1	0.6384393660118803
22.50035734300036	0.5	object	manmade	1	0.6974671269999817
24.000337111006957	0.5	object	manmade	1	0.790496584988432
25.500319751008647	0.5	object	manmade	n/a	n/a
27.00030074699316	0.5	object	natural	1	0.5705252040061168
43.50008046798757	0.5	scene	indoor	n/a	n/a
45.00007838898455	0.5	scene	outdoor	1	0.7737502100062557
46.50005169099313	0.5	scene	indoor	1	0.6147688099881634
48.00002584699541	0.5	scene	outdoor	0	0.8438356450060382
49.49999737998587	0.5	scene	outdoor	1	0.9988358179980423
50.999980938999215	0.5	scene	indoor	1	0.6218496119836345
52.49997153400909	0.5	scene	indoor	n/a	n/a
53.9999394879851	0.5	scene	outdoor	1	0.5869028820015956
55.49993025098229	0.5	scene	outdoor	1	0.6899146910000127
56.99991208399297	0.5	scene	indoor	1	0.5929196630022489
73.4996947569889	0.5	face	male	1	0.7561401980055962
74.99968178098788	0.5	face	male	1	0.4251515340001788
76.49968544798321	0.5	face	male	1	0.49616080400301144
77.99965577400872	0.5	face	male	1	0.3941777409927454
79.49961711198557	0.5	face	female	1	0.5182473470049445
80.99960279898369	0.5	face	female	1	0.41722964600194246
82.49956786099938	0.5	face	female	1	0.5112802450021263
83.99955532798776	0.5	face	female	1	0.46427876900997944
85.49955097498605	0.5	face	female	1	0.4812890690227505
86.99950883400743	0.5	face	male	1	0.5373267699906137
103.49928838398773	0.5	scene	indoor	1	0.698550488014007
105.00365940100164	0.5	scene	outdoor	1	0.5411759119888302
106.499257760006	0.5	scene	outdoor	1	0.8025793199776672
107.99924232799094	0.5	scene	indoor	1	0.6895979680120945
109.4992094259942	0.5	scene	indoor	1	0.5986190040130168
110.99919695800054	0.5	scene	indoor	n/a	n/a
112.49918499198975	0.5	scene	outdoor	1	0.6266550990112592
113.99915952698211	0.5	scene	outdoor	1	0.6546884410199709
115.49913318699691	0.5	scene	indoor	n/a	n/a
116.99912549398141	0.5	scene	outdoor	1	0.5417198310024105
133.49889442700078	0.5	object	manmade	n/a	n/a
135.00356172499596	0.5	object	manmade	1	0.6092808049870655
136.49885239699506	0.5	object	natural	1	0.7569874360051472
137.99884908500826	0.5	object	natural	1	0.6149929849780165
139.4988168529817	0.5	object	manmade	1	0.8010251170198899
140.99879235198023	0.5	object	manmade	1	0.6330497050075792
142.49877427800675	0.5	object	natural	1	0.68905631598318
143.99876167299226	0.5	object	manmade	1	0.7520818609918933
145.49874093200197	0.5	object	natural	1	0.5871018879988696
146.9987126920023	0.5	object	natural	1	0.7931237150041852
163.49849378399085	0.5	face	male	1	0.6033478059980553
165.00065859698225	0.5	face	male	1	0.42219042900251225
166.49845364599605	0.5	face	male	1	0.4083876989898272
167.99844283499988	0.5	face	female	1	0.48936675500590354
169.4984253399889	0.5	face	male	1	0.5494204010174144
170.99839695700211	0.5	face	female	1	0.5084791989938822
172.49837616400328	0.5	face	female	1	0.5844723899790552
173.9983724129852	0.5	face	female	1	0.540479254006641
175.4983421030047	0.5	face	female	1	0.4085027260007337
176.998314817989	0.5	face	male	1	0.5815294380008709
193.49809553899104	0.5	face	female	1	0.622753260016907
194.99807582300855	0.5	face	female	1	0.4017713299836032
196.49912209500326	0.5	face	female	1	0.4447232319798786
197.99803726898972	0.5	face	male	1	0.6168073730077595
199.49802685098257	0.5	face	female	1	0.584820745018078
200.99800276200403	0.5	face	male	1	0.5928467919875402
202.49797458798275	0.5	face	female	1	0.5328713390044868
203.99796249598148	0.5	face	male	1	0.4918901440105401
205.49794377500075	0.5	face	male	1	0.8219008070009295
206.9979215579806	0.5	face	male	1	0.5299266860238276
223.49770375498338	0.5	face	female	1	0.6021535090112593
224.99767456800328	0.5	face	male	1	0.5271815019950736
226.4976635669882	0.5	face	male	1	0.7011852430005092
227.99763570298092	0.5	face	female	1	0.6012174740026239
229.49761856900295	0.5	face	female	1	0.5311149259796366
230.99761216598563	0.5	face	male	1	0.593244236020837
232.49757748798584	0.5	face	female	1	0.8032757820037659
233.99755743899732	0.5	face	male	1	0.7031730999879073
235.4975422300049	0.5	face	female	1	0.5913127340027131
236.99752476499998	0.5	face	male	1	0.5483295659942087
253.49730552299297	0.5	scene	outdoor	1	0.6215507780143525
254.9972828500031	0.5	scene	indoor	1	0.6345635969773866
256.4972671089927	0.5	scene	indoor	1	0.5285822789883241
257.99725571100134	0.5	scene	outdoor	1	0.5445994659967255
259.49722699599806	0.5	scene	outdoor	1	0.5776267430046573
260.99720349998097	0.5	scene	indoor	0	0.6876802960177884
262.49717867700383	0.5	scene	indoor	1	0.8196787199995015
263.9971639739815	0.5	scene	outdoor	1	0.6836356000276282
265.4971714869898	0.5	scene	outdoor	1	0.8686891550023574
266.9971155700041	0.5	scene	indoor	1	0.7967443910019938
283.4969215389865	0.5	scene	indoor	1	0.6669330400181934
284.9969179100008	0.5	scene	outdoor	1	0.9599379980063532
286.49689390399726	0.5	scene	indoor	1	0.907844611996552
287.9968384289823	0.5	scene	outdoor	1	0.647966886026552
289.4968182889861	0.5	scene	outdoor	1	0.6810421099944506
290.99686588699115	0.5	scene	indoor	1	0.5769965130020864
292.49677892800537	0.5	scene	indoor	n/a	n/a
293.99675260600634	0.5	scene	outdoor	1	0.6140541409840807
295.49674488799064	0.5	scene	indoor	1	0.9921181359968614
296.9967269760091	0.5	scene	outdoor	1	0.8801342579827178
313.49650042600115	0.5	face	female	1	0.6853636149899103
314.99648132000584	0.5	face	male	1	0.514349395991303
316.4964696819952	0.5	face	male	1	0.4953933510114439
317.99644597098813	0.5	face	female	1	0.5624155249970499
319.4964271170029	0.5	face	female	1	0.6524473369936459
320.9964024669898	0.5	face	female	1	0.4364745320053771
322.49639068800025	0.5	face	male	1	0.5384761120076291
323.99636767900665	0.5	face	male	1	0.623510813980829
325.49634720699396	0.5	face	female	1	0.6265142429911066
326.9963371779886	0.5	face	male	1	0.9165337700105738
343.4960990260006	0.5	object	manmade	1	0.6717703710019123
344.99608140299097	0.5	object	manmade	0	0.605782069003908
346.49606046199915	0.5	object	manmade	n/a	n/a
347.99605832999805	0.5	object	natural	1	0.9018113419879228
349.4960213860031	0.5	object	manmade	1	0.7818475289968774
350.9960012770025	0.5	object	natural	1	0.6368370229902212
352.4959815409966	0.5	object	natural	1	0.8918830679904204
353.9959623820032	0.5	object	natural	1	0.48490369398496114
355.49594267300563	0.5	object	natural	0	0.8429257039970253
356.9959212160029	0.5	object	manmade	1	0.8639527969935443
373.4957110270043	0.5	scene	outdoor	1	0.672162272996502
374.99568521100446	0.5	scene	indoor	1	0.6111853439942934
376.4956640859891	0.5	scene	outdoor	1	0.9492231630138122
377.9956457289809	0.5	scene	outdoor	1	0.5832248260267079
379.4956234419951	0.5	scene	indoor	n/a	n/a
380.995622655988	0.5	scene	outdoor	n/a	n/a
382.49559187999694	0.5	scene	outdoor	1	0.783277698996244
383.9955714200041	0.5	scene	indoor	1	0.5803001449967269
385.4955448569963	0.5	scene	indoor	0	0.6333302900020499
386.9955355270067	0.5	scene	indoor	n/a	n/a
403.49531249600113	0.5	object	natural	1	0.7535742569889408
404.99528614399605	0.5	object	natural	1	0.6965864840021823
406.49526464098017	0.5	object	manmade	1	0.6496105370169971
407.9952449849807	0.5	object	manmade	0	0.7156343960086815
409.49524407699937	0.5	object	manmade	n/a	n/a
410.99521302699577	0.5	object	natural	1	0.6256571249978151
412.4951919009909	0.5	object	manmade	1	0.6406851270003244
413.99517266399926	0.5	object	natural	1	0.6227052169851959
415.49515482998686	0.5	object	manmade	1	0.5257241020153742
416.99513199398643	0.5	object	natural	1	0.7467479089973494
433.4949286720075	0.5	object	manmade	1	0.6099491989880335
434.994885269989	0.5	object	manmade	1	0.49299434301792644
436.49487330098054	0.5	object	manmade	1	0.5790068620117381
437.9948822489823	0.5	object	manmade	1	0.8779955220234115
439.4948275159986	0.5	object	natural	1	0.61505100998329
440.99481519998517	0.5	object	natural	1	0.5720641280058771
442.4947894180077	0.5	object	natural	1	0.6700925469922367
443.9947684289946	0.5	object	natural	1	0.7531045289942995
445.49474632399506	0.5	object	manmade	1	0.6411350159905851
446.99473247799324	0.5	object	natural	1	0.7041564479877707
