onset	duration	trial_type	subcategory	response_accuracy	response_time
13.510781511984533	0.5	face	male	1	0.7426017360121477
15.01075832999777	0.5	face	female	1	0.4086128339986317
16.51073792797979	0.5	face	female	1	0.5255641770199873
18.010719938989496	0.5	face	male	1	0.4816046119958628
19.51069997198647	0.5	face	male	1	0.4176735419896431
21.010680160979973	0.5	face	male	1	0.5047276310215238
22.510660234984243	0.5	face	male	1	0.4477134970074985
24.010640230990248	0.5	face	female	1	0.5087409089901485
25.51062043500133	0.5	face	female	1	0.548758385994006
27.0105996739876	0.5	face	female	1	0.5717712749901693
43.510378722974565	0.5	object	natural	1	0.7570070040237624
45.01035917797708	0.5	object	manmade	1	0.5100155679974705
46.510340165987145	0.5	object	manmade	1	0.8180359209945891
48.01031918197987	0.5	object	natural	1	0.5740565040032379
49.51030090797576	0.5	object	manmade	1	0.6650838210189249
51.010278770991135	0.5	object	natural	1	0.4990993429964874
52.510258846974466	0.5	object	manmade	1	0.6781190500187222
54.01023848497425	0.5	object	manmade	1	0.9201481350173708
55.510220344993286	0.5	object	natural	1	0.42615008098073304
57.01020046399208	0.5	object	natural	1	0.9871790620090906
73.50997993399506	0.5	scene	indoor	1	0.7224241629883181
75.00995965499897	0.5	scene	indoor	1	0.5684214369975962
76.50994018398342	0.5	scene	outdoor	0	0.6574457960086875
78.00991903297836	0.5	scene	outdoor	1	0.9104729530226905
79.50990006397478	0.5	scene	indoor	1	0.7444777760247234
81.00987922999775	0.5	scene	outdoor	1	0.6635203780024312
82.50986095299595	0.5	scene	outdoor	1	0.6185254199954215
84.00984559798962	0.5	scene	outdoor	1	0.736532356007956
85.50982044098782	0.5	scene	indoor	1	0.6975622749887407
87.00979875799385	0.5	scene	indoor	1	0.8395191849849652
103.50957734597614	0.5	face	female	1	0.6218028050207067
105.0095574419829	0.5	face	male	1	0.4578256480162963
106.50953712197952	0.5	face	female	1	0.48684620700078085
108.00951709799119	0.5	face	female	1	0.45087058600620367
109.50949760599178	0.5	face	male	1	0.47795160399982706
111.00947694998467	0.5	face	male	1	0.44591028499417007
112.50945493098698	0.5	face	female	1	0.47790826100390404
114.009437050001	0.5	face	female	1	0.3958765269780997
115.50941698098904	0.5	face	male	1	0.41396566698676907
117.00939658799325	0.5	face	male	1	0.3359878879855387
133.50917602298432	0.5	scene	outdoor	1	0.6162125889968593
135.00915387598798	0.5	scene	indoor	1	0.5482393180136569
136.49246432899963	0.5	scene	indoor	1	0.6419013279955834
137.99244412398548	0.5	scene	indoor	1	0.49195369001245126
139.4924250849872	0.5	scene	outdoor	0	0.9049667519866489
140.99240407699835	0.5	scene	outdoor	1	0.7129894410027191
142.49238475397578	0.5	scene	indoor	1	0.7399255960190203
143.99236413199105	0.5	scene	indoor	1	0.8070242640096694
145.49235025097732	0.5	scene	outdoor	1	0.5920407150115352
146.99232451198623	0.5	scene	outdoor	1	0.5370689590054099
163.49210427998332	0.5	object	manmade	0	0.9522891840024386
164.9920835539815	0.5	object	natural	n/a	n/a
166.49206244997913	0.5	object	manmade	1	0.403308401000686
167.99203945099725	0.5	object	manmade	1	0.6253514099807944
169.49202096799854	0.5	object	natural	1	0.5433809599780943
170.99200251797447	0.5	object	natural	1	0.8263893609982915
172.49198316098773	0.5	object	natural	1	0.762411968986271
173.99196002699318	0.5	object	manmade	1	0.6004364409891423
175.49194182700012	0.5	object	manmade	1	0.8844557459815405
176.99191959798918	0.5	object	natural	1	0.5174713559972588
193.49169565198827	0.5	face	male	1	0.5237082969979383
194.99167807897902	0.5	face	female	1	0.4647168609953951
196.4916586309846	0.5	face	male	1	0.47267454501707107
197.9916352139844	0.5	face	female	1	0.49476336300722323
199.4916170189972	0.5	face	male	1	0.4927784409956075
200.99160576998838	0.5	face	female	1	0.4628568170010112
202.49157659799675	0.5	face	female	1	0.5188182049896568
203.9915618019877	0.5	face	male	1	0.44783480899059214
205.49153629597276	0.5	face	female	1	0.49386325900559314
206.99151370799518	0.5	face	male	1	0.3368932649900671
223.49129081499996	0.5	scene	outdoor	1	0.5161088489985559
224.99126901797717	0.5	scene	indoor	1	0.43219808299909346
226.4912530379952	0.5	scene	indoor	1	0.7130725879978854
227.99123145997874	0.5	scene	outdoor	1	0.5421780699980445
229.4912114329927	0.5	scene	indoor	1	0.4651912209810689
230.9912009209802	0.5	scene	outdoor	1	0.6851983120141085
232.49117081897566	0.5	scene	outdoor	1	0.5281989000213798
233.99115087697282	0.5	scene	indoor	1	0.587259421008639
235.49113046500133	0.5	scene	indoor	1	0.6782884979911614
236.99111010797787	0.5	scene	outdoor	1	0.5672908890119288
253.49088442197535	0.5	face	male	1	0.5765152940002736
254.9908661399968	0.5	face	male	1	0.39253757198457606
256.49084582799696	0.5	face	male	1	0.3894794299849309
257.9908254129987	0.5	face	female	1	0.30650638599763624
259.49080513598165	0.5	face	female	1	0.3735990950081032
260.99078213397297	0.5	face	male	1	0.36265354801435024
262.49076464699465	0.5	face	female	1	0.4936423639883287
263.99074141998426	0.5	face	female	1	0.5165859159897082
265.4907230019744	0.5	face	male	1	0.5146792570012622
266.9907035289798	0.5	face	female	1	0.4187034710193984
283.49047741899267	0.5	scene	indoor	1	0.5379330569994636
284.99045759197907	0.5	scene	outdoor	1	0.37994901501224376
286.49043699898175	0.5	scene	outdoor	1	0.5199785869917832
287.9904189899971	0.5	scene	indoor	1	0.6389877519977745
289.4903984470002	0.5	scene	outdoor	1	0.5039923059812281
290.99037635998684	0.5	scene	indoor	1	0.6060413910017814
292.4903557599755	0.5	scene	indoor	n/a	n/a
293.99033725998015	0.5	scene	indoor	1	0.6250743980053812
295.49031367199495	0.5	scene	outdoor	1	0.5361260229838081
296.9902944569767	0.5	scene	outdoor	1	0.5281112210068386
313.4900725459738	0.5	scene	indoor	1	0.4783464470237959
314.99005227399175	0.5	scene	indoor	1	0.7213670169876423
316.49176350899506	0.5	scene	indoor	1	0.5306506069900934
317.99001224097447	0.5	scene	outdoor	1	0.532399832009105
319.48999133199686	0.5	scene	outdoor	0	0.5364077709964477
320.98997094799415	0.5	scene	outdoor	1	0.6624409299984109
322.4899505629728	0.5	scene	outdoor	1	0.48935130302561447
323.989930234995	0.5	scene	outdoor	1	0.5964831140008755
325.48990978999063	0.5	scene	indoor	1	0.5334783539874479
326.9898874479986	0.5	scene	indoor	1	0.5145263279846404
343.4896660609811	0.5	object	natural	1	0.5237185950099956
344.9896505929937	0.5	object	manmade	1	0.5767603699932806
346.4896227919962	0.5	object	natural	1	0.5598211299802642
347.98960405099206	0.5	object	natural	1	0.6198199469945394
349.4895837769727	0.5	object	manmade	1	0.5008167620107997
350.98956351698143	0.5	object	manmade	n/a	n/a
352.48954298897297	0.5	object	natural	1	0.4198796270065941
353.98952285197447	0.5	object	manmade	1	0.7978949730168097
355.48950260298443	0.5	object	manmade	1	0.592917892994592
356.98947968898574	0.5	object	natural	1	0.6329425539879594
373.4892608759983	0.5	object	natural	1	0.5001664839801379
374.98923771697446	0.5	object	natural	1	0.49117747601121664
376.4892173789849	0.5	object	manmade	1	0.6462026069930289
377.98919943298097	0.5	object	manmade	1	0.5632211430056486
379.4891744819761	0.5	object	natural	1	0.505250034009805
380.98915726999985	0.5	object	natural	1	0.42624204797903076
382.48913576698396	0.5	object	natural	1	0.4643008139973972
383.9891152839991	0.5	object	manmade	1	0.47031448400230147
385.48909321500105	0.5	object	manmade	1	0.5062556619814131
386.9890748029866	0.5	object	manmade	1	0.6263434959982987
403.488849958987	0.5	object	natural	1	0.554570464999415
404.988829651993	0.5	object	natural	1	0.45159261699882336
406.4888098439842	0.5	object	manmade	1	0.4506881019915454
407.9887886889919	0.5	object	manmade	1	0.5266420170082711
409.4887688109884	0.5	object	natural	1	0.5196271309978329
410.9887482599879	0.5	object	natural	1	0.5326767709921114
412.48872769999434	0.5	object	natural	1	0.48070404600002803
413.9887073649734	0.5	object	manmade	1	0.44366639200598
415.4886866839952	0.5	object	manmade	1	0.4337442989926785
416.9886662819772	0.5	object	manmade	1	0.48476561802090146
433.4884422409814	0.5	face	male	1	0.41696347601828165
434.98842125199735	0.5	face	male	1	0.4559667829889804
436.4884013829869	0.5	face	female	1	0.5150327000010293
437.9883805089921	0.5	face	female	1	0.41104877699399367
439.4883600269968	0.5	face	male	1	0.43307286698836833
440.9883389049792	0.5	face	female	1	0.463090214994736
442.4883190889959	0.5	face	female	1	0.3530952179862652
443.9882971229963	0.5	face	male	1	0.4051321529841516
445.48827851199894	0.5	face	female	1	0.4091578099760227
446.988257154997	0.5	face	male	0	0.4721930419909768
