onset	duration	trial_type	reward_condition	condition	repetition	pairmate	pairID	response_accuracy	response_time
13.501815204974266	2.5	scene	reward	violation	1	A	36	0	0.5437786797992885
16.001815204974264	3.0	feedback	n/a	n/a	n/a	n/a	n/a	n/a	n/a
19.50173864467069	2.5	scene	reward	nonviolation	1	A	88	1	0.992777271196246
22.00173864467069	3.0	feedback	n/a	n/a	n/a	n/a	n/a	n/a	n/a
25.501658581662927	2.5	scene	neutral	nonviolation	1	A	73	1	0.5429334403015673
28.001658581662927	3.0	feedback	n/a	n/a	n/a	n/a	n/a	n/a	n/a
31.501581996679306	2.5	scene	neutral	nonviolation	1	A	93	1	0.5790021661669016
34.001581996679306	3.0	feedback	n/a	n/a	n/a	n/a	n/a	n/a	n/a
37.50151346158236	2.5	scene	reward	violation	1	A	1	0	0.5230801501311362
40.00151346158236	3.0	feedback	n/a	n/a	n/a	n/a	n/a	n/a	n/a
43.50598914083093	2.5	scene	reward	nonviolation	1	A	95	1	0.7536034770309925
46.00598914083093	3.0	feedback	n/a	n/a	n/a	n/a	n/a	n/a	n/a
49.5055186538957	2.5	scene	reward	violation	1	A	23	1	0.8560791369527578
52.0055186538957	3.0	feedback	n/a	n/a	n/a	n/a	n/a	n/a	n/a
55.50126865971834	2.5	scene	neutral	nonviolation	1	A	49	1	0.5713261580094695
58.00126865971834	3.0	feedback	n/a	n/a	n/a	n/a	n/a	n/a	n/a
61.50119096692653	2.5	scene	reward	nonviolation	1	A	78	1	0.6324062859639525
64.00119096692653	3.0	feedback	n/a	n/a	n/a	n/a	n/a	n/a	n/a
67.50430302461609	2.5	scene	reward	violation	1	A	41	1	0.6712946770712733
70.00430302461609	3.0	feedback	n/a	n/a	n/a	n/a	n/a	n/a	n/a
73.5051097376272	2.5	scene	neutral	violation	1	A	12	1	0.5814900803379714
76.0051097376272	3.0	feedback	n/a	n/a	n/a	n/a	n/a	n/a	n/a
79.5046205036342	2.5	scene	reward	nonviolation	1	A	62	0	0.7549820221029222
82.0046205036342	3.0	feedback	n/a	n/a	n/a	n/a	n/a	n/a	n/a
85.50343854073435	2.5	scene	neutral	violation	1	A	31	0	1.1021624421700835
88.00343854073435	3.0	feedback	n/a	n/a	n/a	n/a	n/a	n/a	n/a
91.5039435797371	2.5	scene	neutral	violation	1	A	5	1	0.5926742511801422
94.0039435797371	3.0	feedback	n/a	n/a	n/a	n/a	n/a	n/a	n/a
97.50347295962273	2.5	scene	neutral	nonviolation	1	A	91	1	0.6121244523674251
100.00347295962273	3.0	feedback	n/a	n/a	n/a	n/a	n/a	n/a	n/a
103.50064590061085	2.5	scene	reward	nonviolation	1	A	51	1	0.8479548650793731
106.00064590061085	3.0	feedback	n/a	n/a	n/a	n/a	n/a	n/a	n/a
109.50317981978878	2.5	scene	reward	nonviolation	1	A	59	1	0.6624224209226668
112.00317981978878	3.0	feedback	n/a	n/a	n/a	n/a	n/a	n/a	n/a
115.50048920791595	2.5	scene	reward	violation	1	A	14	1	0.6581126218661666
118.00048920791595	3.0	feedback	n/a	n/a	n/a	n/a	n/a	n/a	n/a
121.50237585883586	2.5	scene	neutral	violation	1	A	18	1	0.5612492221407592
124.00237585883586	3.0	feedback	n/a	n/a	n/a	n/a	n/a	n/a	n/a
127.50188158499077	2.5	scene	neutral	violation	1	A	43	1	0.6627259706147015
130.00188158499077	3.0	feedback	n/a	n/a	n/a	n/a	n/a	n/a	n/a
133.50163919990882	2.5	scene	neutral	nonviolation	1	A	84	1	0.6199715090915561
136.00163919990882	3.0	feedback	n/a	n/a	n/a	n/a	n/a	n/a	n/a
139.50115411682054	2.5	scene	neutral	violation	1	A	9	1	0.5564615367911756
142.00115411682052	3.0	feedback	n/a	n/a	n/a	n/a	n/a	n/a	n/a
145.50067268684506	2.5	scene	reward	nonviolation	1	A	68	1	0.8279307987540959
148.00067268684506	3.0	feedback	n/a	n/a	n/a	n/a	n/a	n/a	n/a
151.50119313178584	2.5	scene	reward	violation	1	A	27	1	0.7794178919866681
154.00119313178584	3.0	feedback	n/a	n/a	n/a	n/a	n/a	n/a	n/a
157.5012215399183	2.5	scene	reward	violation	1	A	2	1	0.6443890826776624
160.0012215399183	3.0	feedback	n/a	n/a	n/a	n/a	n/a	n/a	n/a
163.50002328772098	2.5	scene	neutral	violation	1	A	19	1	1.0066097839735448
166.00002328772098	3.0	feedback	n/a	n/a	n/a	n/a	n/a	n/a	n/a
169.49983110185713	2.5	scene	neutral	nonviolation	1	A	71	1	0.5727799898013473
171.9998311018571	3.0	feedback	n/a	n/a	n/a	n/a	n/a	n/a	n/a
175.50012685265392	2.5	scene	reward	violation	1	A	29	1	0.7574908663518727
178.00012685265392	3.0	feedback	n/a	n/a	n/a	n/a	n/a	n/a	n/a
181.499635014683	2.5	scene	reward	nonviolation	1	A	85	1	0.7869778410531579
183.999635014683	3.0	feedback	n/a	n/a	n/a	n/a	n/a	n/a	n/a
187.49956407165158	2.5	scene	reward	nonviolation	1	A	96	1	0.7880510590039194
189.99956407165158	3.0	feedback	n/a	n/a	n/a	n/a	n/a	n/a	n/a
193.49948556162414	2.5	scene	neutral	nonviolation	1	A	54	1	0.7911301222629845
195.99948556162414	3.0	feedback	n/a	n/a	n/a	n/a	n/a	n/a	n/a
199.4994023679756	2.5	scene	neutral	nonviolation	1	A	66	1	0.5612123687751591
201.9994023679756	3.0	feedback	n/a	n/a	n/a	n/a	n/a	n/a	n/a
205.499325199984	2.5	scene	neutral	violation	1	A	47	1	0.7782875187695026
207.999325199984	3.0	feedback	n/a	n/a	n/a	n/a	n/a	n/a	n/a
211.49924642872062	2.5	scene	neutral	violation	1	A	35	1	0.6093677282333374
213.99924642872062	3.0	feedback	n/a	n/a	n/a	n/a	n/a	n/a	n/a
217.49916804488745	2.5	scene	reward	nonviolation	1	A	69	1	0.8034326480701566
219.99916804488745	3.0	feedback	n/a	n/a	n/a	n/a	n/a	n/a	n/a
223.4991028336808	2.5	scene	neutral	nonviolation	1	A	58	1	0.5825169030576944
225.9991028336808	3.0	feedback	n/a	n/a	n/a	n/a	n/a	n/a	n/a
229.49901173682883	2.5	scene	neutral	violation	1	A	28	1	0.6796086607500911
231.99901173682883	3.0	feedback	n/a	n/a	n/a	n/a	n/a	n/a	n/a
235.49893463868648	2.5	scene	reward	violation	1	A	48	1	0.719683722127229
237.99893463868648	3.0	feedback	n/a	n/a	n/a	n/a	n/a	n/a	n/a
241.49886431964114	2.5	scene	neutral	violation	1	A	40	1	0.6237557861022651
243.99886431964114	3.0	feedback	n/a	n/a	n/a	n/a	n/a	n/a	n/a
247.49878025101498	2.5	scene	neutral	nonviolation	1	A	86	1	0.7448491379618645
249.99878025101498	3.0	feedback	n/a	n/a	n/a	n/a	n/a	n/a	n/a
253.49870937783268	2.5	scene	reward	nonviolation	1	A	55	1	0.6829183571971953
255.99870937783268	3.0	feedback	n/a	n/a	n/a	n/a	n/a	n/a	n/a
259.4986248528585	2.5	scene	reward	violation	1	A	22	1	0.8799990047700703
261.9986248528585	3.0	feedback	n/a	n/a	n/a	n/a	n/a	n/a	n/a
265.4985463107005	2.5	scene	reward	violation	1	A	10	0	0.6640765219926834
267.9985463107005	3.0	feedback	n/a	n/a	n/a	n/a	n/a	n/a	n/a
271.49846816482017	2.5	scene	neutral	nonviolation	1	A	75	1	0.5611588051542641
273.99846816482017	3.0	feedback	n/a	n/a	n/a	n/a	n/a	n/a	n/a
277.49839678779244	2.5	scene	reward	violation	1	A	33	1	0.725228713825345
279.99839678779244	3.0	feedback	n/a	n/a	n/a	n/a	n/a	n/a	n/a
283.49832603801036	2.5	scene	neutral	violation	1	A	6	1	0.6202956438064575
285.99832603801036	3.0	feedback	n/a	n/a	n/a	n/a	n/a	n/a	n/a
289.4982343297452	2.5	scene	neutral	nonviolation	1	A	64	1	0.6532745980657637
291.9982343297452	3.0	feedback	n/a	n/a	n/a	n/a	n/a	n/a	n/a
295.49815671471885	2.5	scene	reward	nonviolation	1	A	80	1	0.7354738810099661
297.99815671471885	3.0	feedback	n/a	n/a	n/a	n/a	n/a	n/a	n/a
301.4980807946995	2.5	scene	neutral	violation	2	A	43	1	0.5635446673259139
303.9980807946995	3.0	feedback	n/a	n/a	n/a	n/a	n/a	n/a	n/a
307.4980123778805	2.5	scene	reward	violation	2	A	1	1	0.7316168388351798
309.9980123778805	3.0	feedback	n/a	n/a	n/a	n/a	n/a	n/a	n/a
313.497931629885	2.5	scene	reward	nonviolation	2	A	59	1	0.6506991637870669
315.997931629885	3.0	feedback	n/a	n/a	n/a	n/a	n/a	n/a	n/a
319.4978456320241	2.5	scene	reward	violation	2	A	33	1	0.6797830406576395
321.9978456320241	3.0	feedback	n/a	n/a	n/a	n/a	n/a	n/a	n/a
325.4977781795897	2.5	scene	neutral	nonviolation	2	A	86	1	0.5528536750935018
327.9977781795897	3.0	feedback	n/a	n/a	n/a	n/a	n/a	n/a	n/a
331.49770330358297	2.5	scene	reward	violation	2	A	22	1	0.6698028552345932
333.99770330358297	3.0	feedback	n/a	n/a	n/a	n/a	n/a	n/a	n/a
337.49761332571507	2.5	scene	neutral	nonviolation	2	A	54	1	0.6180183459073305
339.99761332571507	3.0	feedback	n/a	n/a	n/a	n/a	n/a	n/a	n/a
343.49753580102697	2.5	scene	neutral	nonviolation	2	A	71	1	0.6540958047844471
345.9975358010269	3.0	feedback	n/a	n/a	n/a	n/a	n/a	n/a	n/a
349.49745724862436	2.5	scene	neutral	nonviolation	2	A	73	1	0.6061784289777279
351.99745724862436	3.0	feedback	n/a	n/a	n/a	n/a	n/a	n/a	n/a
355.4973864159547	2.5	scene	neutral	nonviolation	2	A	75	1	0.5502070947550237
357.9973864159547	3.0	feedback	n/a	n/a	n/a	n/a	n/a	n/a	n/a
361.49730304675177	2.5	scene	neutral	violation	2	A	19	1	0.6893323082476854
363.99730304675177	3.0	feedback	n/a	n/a	n/a	n/a	n/a	n/a	n/a
367.4972225637175	2.5	scene	neutral	violation	2	A	40	1	0.5993886371143162
369.9972225637175	3.0	feedback	n/a	n/a	n/a	n/a	n/a	n/a	n/a
373.4971452127211	2.5	scene	reward	violation	2	A	29	1	0.8514915569685401
375.9971452127211	3.0	feedback	n/a	n/a	n/a	n/a	n/a	n/a	n/a
379.4970722389408	2.5	scene	neutral	nonviolation	2	A	66	1	0.6635650107637048
381.9970722389408	3.0	feedback	n/a	n/a	n/a	n/a	n/a	n/a	n/a
385.4969989978708	2.5	scene	neutral	violation	2	A	5	1	0.6105639208108187
387.9969989978708	3.0	feedback	n/a	n/a	n/a	n/a	n/a	n/a	n/a
391.49691268382594	2.5	scene	reward	violation	2	A	2	1	0.6897226278670132
393.99691268382594	3.0	feedback	n/a	n/a	n/a	n/a	n/a	n/a	n/a
397.48016847297544	2.5	scene	reward	violation	2	A	36	1	0.7353442599996924
399.98016847297544	3.0	feedback	n/a	n/a	n/a	n/a	n/a	n/a	n/a
403.4967560046352	2.5	scene	reward	nonviolation	2	A	55	1	0.645886646118015
405.9967560046352	3.0	feedback	n/a	n/a	n/a	n/a	n/a	n/a	n/a
409.48000788968056	2.5	scene	neutral	violation	2	A	47	1	0.6296289609745145
411.98000788968056	3.0	feedback	n/a	n/a	n/a	n/a	n/a	n/a	n/a
415.47993385093287	2.5	scene	neutral	violation	2	A	9	1	0.6897088540717959
417.97993385093287	3.0	feedback	n/a	n/a	n/a	n/a	n/a	n/a	n/a
421.4798563639634	2.5	scene	reward	nonviolation	2	A	69	1	0.8047913978807628
423.9798563639634	3.0	feedback	n/a	n/a	n/a	n/a	n/a	n/a	n/a
427.4798081596382	2.5	scene	neutral	nonviolation	2	A	58	1	0.5818321462720633
429.9798081596382	3.0	feedback	n/a	n/a	n/a	n/a	n/a	n/a	n/a
433.4797041816637	2.5	scene	reward	nonviolation	2	A	88	0	0.9579388853162528
435.9797041816637	3.0	feedback	n/a	n/a	n/a	n/a	n/a	n/a	n/a
439.4796207170002	2.5	scene	reward	violation	2	A	23	1	0.8130270820111036
441.9796207170002	3.0	feedback	n/a	n/a	n/a	n/a	n/a	n/a	n/a
445.4795441469177	2.5	scene	reward	violation	2	A	41	1	0.6881040497682989
447.9795441469177	3.0	feedback	n/a	n/a	n/a	n/a	n/a	n/a	n/a
451.47946453792974	2.5	scene	reward	nonviolation	2	A	80	1	0.7281033089384437
453.97946453792974	3.0	feedback	n/a	n/a	n/a	n/a	n/a	n/a	n/a
457.47939902963117	2.5	scene	neutral	nonviolation	2	A	84	1	0.6252483082935214
459.97939902963117	3.0	feedback	n/a	n/a	n/a	n/a	n/a	n/a	n/a
463.4793211268261	2.5	scene	neutral	violation	2	A	31	1	0.6943273018114269
465.9793211268261	3.0	feedback	n/a	n/a	n/a	n/a	n/a	n/a	n/a
469.47923306096345	2.5	scene	neutral	violation	2	A	12	1	0.8434138367883861
471.97923306096345	3.0	feedback	n/a	n/a	n/a	n/a	n/a	n/a	n/a
475.48370116064325	2.5	scene	reward	nonviolation	2	A	68	1	0.7889527431689203
477.98370116064325	3.0	feedback	n/a	n/a	n/a	n/a	n/a	n/a	n/a
481.4835180225782	2.5	scene	neutral	nonviolation	2	A	64	1	0.9671342354267836
483.9835180225782	3.0	feedback	n/a	n/a	n/a	n/a	n/a	n/a	n/a
487.4790044520049	2.5	scene	neutral	violation	2	A	18	1	0.6916514309123158
489.9790044520049	3.0	feedback	n/a	n/a	n/a	n/a	n/a	n/a	n/a
493.48354116082186	2.5	scene	reward	nonviolation	2	A	62	1	0.7881025890819728
495.98354116082186	3.0	feedback	n/a	n/a	n/a	n/a	n/a	n/a	n/a
499.48335058894014	2.5	scene	neutral	violation	2	A	6	1	0.6333023216575384
501.98335058894014	3.0	feedback	n/a	n/a	n/a	n/a	n/a	n/a	n/a
505.4828761238605	2.5	scene	neutral	violation	2	A	35	1	0.6337792030535638
507.9828761238605	3.0	feedback	n/a	n/a	n/a	n/a	n/a	n/a	n/a
511.4824044289999	2.5	scene	reward	nonviolation	2	A	51	1	0.8292520525865257
513.9824044289999	3.0	feedback	n/a	n/a	n/a	n/a	n/a	n/a	n/a
517.4786174329929	2.5	scene	reward	nonviolation	2	A	96	1	0.7069600569084287
519.9786174329929	3.0	feedback	n/a	n/a	n/a	n/a	n/a	n/a	n/a
523.4818903650157	2.5	scene	neutral	nonviolation	2	A	49	1	0.6387629206292331
525.9818903650157	3.0	feedback	n/a	n/a	n/a	n/a	n/a	n/a	n/a
529.4824025318958	2.5	scene	reward	violation	2	A	14	1	0.7642579409293829
531.9824025318958	3.0	feedback	n/a	n/a	n/a	n/a	n/a	n/a	n/a
535.4819089639932	2.5	scene	neutral	nonviolation	2	A	91	1	0.6697306386195123
537.9819089639932	3.0	feedback	n/a	n/a	n/a	n/a	n/a	n/a	n/a
541.4814390139654	2.5	scene	neutral	nonviolation	2	A	93	1	0.7082199188880622
543.9814390139654	3.0	feedback	n/a	n/a	n/a	n/a	n/a	n/a	n/a
547.4809660296887	2.5	scene	reward	violation	2	A	48	1	0.6946960352361202
549.9809660296887	3.0	feedback	n/a	n/a	n/a	n/a	n/a	n/a	n/a
553.4796987227164	2.5	scene	reward	violation	2	A	10	0	0.7979569570161402
555.9796987227164	3.0	feedback	n/a	n/a	n/a	n/a	n/a	n/a	n/a
559.4780699480325	2.5	scene	reward	nonviolation	2	A	95	1	0.6715073119848967
561.9780699480325	3.0	feedback	n/a	n/a	n/a	n/a	n/a	n/a	n/a
565.4799345289358	2.5	scene	reward	nonviolation	2	A	78	1	0.8347286470234394
567.9799345289358	3.0	feedback	n/a	n/a	n/a	n/a	n/a	n/a	n/a
571.4779197326861	2.5	scene	neutral	violation	2	A	28	1	0.635745707899332
573.9779197326861	3.0	feedback	n/a	n/a	n/a	n/a	n/a	n/a	n/a
577.478900837712	2.5	scene	reward	nonviolation	2	A	85	1	0.6907950262539089
579.978900837712	3.0	feedback	n/a	n/a	n/a	n/a	n/a	n/a	n/a
583.4794276310131	2.5	scene	reward	violation	2	A	27	1	0.6241123420186341
585.9794276310131	3.0	feedback	n/a	n/a	n/a	n/a	n/a	n/a	n/a
