onset	duration	trial_type	condition	repetition	pairmate	pairID	category	subcategory	response_accuracy	response_time
13.50589045137167	1	postlearning	violation	2	n/a	35	face	male	1	0.9488775823265314
16.505850376561284	1	postlearning	violation	2	n/a	45	face	female	1	0.5849119313061237
19.505817165598273	1	postlearning	violation	2	n/a	19	face	female	1	0.5519466297701001
22.50576978269964	1	postlearning	violation	2	n/a	42	face	male	1	0.4890751419588924
25.505729120224714	1	postlearning	violation	2	n/a	3	face	male	1	0.6540110660716891
28.505688724108037	1	postlearning	violation	2	n/a	2	face	female	1	0.6080838041380048
31.50564671866596	1	postlearning	violation	2	n/a	11	face	male	1	0.5791302844882011
34.50560802407563	1	postlearning	violation	2	n/a	33	face	female	1	0.5920853121206164
37.50556716416031	1	postlearning	violation	2	n/a	15	face	male	1	0.7172051686793566
40.505527444183826	1	postlearning	violation	2	n/a	27	face	male	1	0.5421956805512309
43.505484754219644	1	postlearning	violation	2	n/a	36	face	female	1	0.7772798556834459
46.505443571135395	1	postlearning	violation	2	n/a	8	face	male	1	0.5863239038735628
49.50540615525097	1	postlearning	violation	2	n/a	23	face	female	1	0.4953663051128388
52.50536344666035	1	postlearning	violation	2	n/a	20	face	female	1	0.6193702770397067
55.50532302074135	1	postlearning	violation	2	n/a	6	face	female	1	0.6684521120041609
58.50528425630182	1	postlearning	violation	2	n/a	34	face	male	1	0.6804870599880815
61.50524467229843	1	postlearning	violation	2	n/a	12	face	male	0	0.9935256158933043
64.50520302727817	1	postlearning	violation	2	n/a	15	face	male	1	0.8485726388171315
67.50516213662922	1	postlearning	violation	2	n/a	33	face	female	1	0.6626105513423681
70.50512195937334	1	postlearning	violation	2	n/a	39	face	male	1	0.5816491749137641
73.50508143380284	1	postlearning	violation	2	n/a	44	face	female	1	0.7146913269534707
76.50504082534464	1	postlearning	violation	2	n/a	16	face	female	1	0.6547343404963613
79.50499987509102	1	postlearning	violation	2	n/a	21	face	male	1	0.5288483947515488
82.50495711993426	1	postlearning	violation	2	n/a	16	face	female	1	0.5568226054310799
85.50491632707417	1	postlearning	violation	2	n/a	10	face	female	1	0.7308602416887879
88.50487764459102	1	postlearning	violation	2	n/a	1	face	male	1	0.6728232270106673
91.50483494251966	1	postlearning	violation	2	n/a	28	face	female	1	0.6699387840926647
94.50479673687369	1	postlearning	violation	2	n/a	4	face	female	1	0.6409818781539798
97.5047557791695	1	postlearning	violation	2	n/a	13	face	female	1	0.5450161146000028
100.50471542496236	1	postlearning	violation	2	n/a	13	face	female	1	0.4840595591813326
103.50467266608031	1	postlearning	violation	2	n/a	17	face	female	1	0.7971007432788609
106.50463378336279	1	postlearning	violation	2	n/a	2	face	female	1	0.4771454622969031
109.50459082331508	1	postlearning	violation	2	n/a	1	face	male	1	0.4921904699876905
112.50455031078307	1	postlearning	violation	2	n/a	22	face	male	1	0.5452331444248557
115.50451145786793	1	postlearning	violation	2	n/a	9	face	female	1	0.521267855539918
118.50447024963795	1	postlearning	violation	2	n/a	23	face	female	1	0.6033061137422919
121.50442964956163	1	postlearning	violation	2	n/a	6	face	female	1	0.6663478333503008
124.50438799336551	1	postlearning	violation	2	n/a	39	face	male	1	0.6753864362835884
127.50434968527406	1	postlearning	violation	2	n/a	7	face	male	1	0.7834373181685805
130.50430683977902	1	postlearning	violation	2	n/a	14	face	male	1	0.6404706323519349
133.50426631513986	1	postlearning	violation	2	n/a	26	face	female	1	0.5035229194909334
136.5042257560417	1	postlearning	violation	2	n/a	21	face	male	1	0.6725524133071303
139.5041826479137	1	postlearning	violation	2	n/a	47	face	female	1	0.5316234407946467
142.50414339732382	1	postlearning	violation	2	n/a	48	face	female	1	0.4697016384452581
145.50410183239728	1	postlearning	violation	2	n/a	24	face	male	1	0.7806773530319333
148.50406100042161	1	postlearning	violation	2	n/a	31	face	male	1	0.7517184438183904
151.50402074120942	1	postlearning	violation	2	n/a	12	face	male	1	0.8777573304250836
154.50398006942126	1	postlearning	violation	2	n/a	40	face	female	1	1.1038075769320128
157.50393915362656	1	postlearning	violation	2	n/a	37	face	female	1	0.6427653767168522
160.50389661733058	1	postlearning	violation	2	n/a	42	face	male	1	0.7418908402323723
163.50385747570544	1	postlearning	violation	2	n/a	38	face	male	1	0.5699238926172256
166.5038161277771	1	postlearning	violation	2	n/a	35	face	male	1	0.5439770240336657
169.50377391371876	1	postlearning	violation	2	n/a	3	face	male	1	0.8210201933979988
172.50373468268663	1	postlearning	violation	2	n/a	41	face	male	1	0.4780577095225453
175.50369250494987	1	postlearning	violation	2	n/a	20	face	female	1	0.7440894925966859
178.50365107320252	1	postlearning	violation	2	n/a	31	face	male	0	0.6891375491395593
181.50361135602	1	postlearning	violation	2	n/a	47	face	female	1	0.5391854206100106
184.50357074104252	1	postlearning	violation	2	n/a	24	face	male	1	0.5892196157947183
187.503532409668	1	postlearning	violation	2	n/a	7	face	male	1	0.6921986835077405
190.50348648708317	1	postlearning	violation	2	n/a	29	face	female	1	0.5452382555231452
193.50344561506063	1	postlearning	violation	2	n/a	48	face	female	1	0.6883439105004072
196.5034086285159	1	postlearning	violation	2	n/a	43	face	male	1	0.7043808205053209
199.50336540769783	1	postlearning	violation	2	n/a	14	face	male	1	0.7753453394398093
202.50332507491112	1	postlearning	violation	2	n/a	27	face	male	1	0.9164883969351648
205.50328043475747	1	postlearning	violation	2	n/a	34	face	male	1	0.6815106580033898
208.5032434752211	1	postlearning	violation	2	n/a	9	face	female	1	0.6254885941743851
211.50320088025185	1	postlearning	violation	2	n/a	44	face	female	1	1.0475861094892025
214.50316000264138	1	postlearning	violation	2	n/a	17	face	female	1	0.4716314570978284
217.50311837065965	1	postlearning	violation	2	n/a	41	face	male	1	0.7536774566397071
220.5030780648813	1	postlearning	violation	2	n/a	46	face	male	1	0.699720767326653
223.50303874071685	1	postlearning	violation	2	n/a	19	face	female	1	0.5727519365027547
226.5030007883906	1	postlearning	violation	2	n/a	18	face	male	1	0.8187914835289121
229.50295480340716	1	postlearning	violation	2	n/a	25	face	female	1	0.7028461545705795
232.50291121564808	1	postlearning	violation	2	n/a	11	face	male	1	0.6478841910138726
235.50287237297744	1	postlearning	violation	2	n/a	4	face	female	1	0.5639188522472978
238.5028336010873	1	postlearning	violation	2	n/a	38	face	male	1	0.8569620288908482
241.5027877455577	1	postlearning	violation	2	n/a	28	face	female	1	0.5990022560581565
244.50274675339458	1	postlearning	violation	2	n/a	25	face	female	1	0.6330382516607642
247.50270839873698	1	postlearning	violation	2	n/a	46	face	male	1	0.7600917872041464
250.50266630761325	1	postlearning	violation	2	n/a	37	face	female	1	0.902128268033266
253.50262276362628	1	postlearning	violation	2	n/a	36	face	female	1	0.6361674377694726
256.5025834776461	1	postlearning	violation	2	n/a	40	face	female	1	0.5302084134891629
259.4858765248209	1	postlearning	violation	2	n/a	8	face	male	1	0.9669277267530559
262.5025014039129	1	postlearning	violation	2	n/a	10	face	female	1	0.7042926447466016
265.50245997030294	1	postlearning	violation	2	n/a	22	face	male	1	0.6303352620452642
268.5024186540395	1	postlearning	violation	2	n/a	43	face	male	1	0.5223806956782937
271.5023788837716	1	postlearning	violation	2	n/a	45	face	female	1	0.76241968665272
274.48566805105656	1	postlearning	violation	2	n/a	29	face	female	1	0.5281391432508826
277.48562662675977	1	postlearning	violation	2	n/a	5	face	female	1	0.5521736498922111
280.48558540456	1	postlearning	violation	2	n/a	26	face	female	1	0.5402099080383778
283.48554449528456	1	postlearning	violation	2	n/a	32	face	male	1	0.7091743694618344
286.4855040777474	1	postlearning	violation	2	n/a	30	face	male	1	0.5863015325739979
289.48546010721475	1	postlearning	violation	2	n/a	18	face	male	1	1.0873405588790774
292.48542243521666	1	postlearning	violation	2	n/a	30	face	male	1	0.570382721722126
295.4853788763285	1	postlearning	violation	2	n/a	32	face	male	1	0.6763049112632871
298.4853371260688	1	postlearning	violation	2	n/a	5	face	female	1	0.4884785525500774
