onset	duration	trial_type	condition	repetition	pairmate	pairID	category	subcategory	response_accuracy	response_time
13.502917581994552	1	prelearning	nonviolation	1	B	85	scene	outdoor	1	0.6057724160491489
16.50287850899622	1	prelearning	nonviolation	1	B	88	scene	indoor	1	0.6318072150461376
19.50283793901326	1	prelearning	nonviolation	1	A	86	scene	outdoor	1	0.44784671801608056
22.50278535700636	1	prelearning	violation	1	B	40	scene	indoor	1	0.5209018980385736
25.50276870001107	1	prelearning	nonviolation	1	B	84	scene	indoor	1	0.6029178100288846
28.50271928403527	1	prelearning	violation	1	B	37	scene	outdoor	1	0.4889687249669805
31.50266385701252	1	prelearning	nonviolation	1	B	81	scene	indoor	1	0.507026584004052
34.50262205203762	1	prelearning	violation	1	B	35	scene	indoor	1	0.5910636329790577
37.50258922704961	1	prelearning	nonviolation	1	A	85	scene	outdoor	1	0.5461002059746534
40.50254936999409	1	prelearning	nonviolation	1	A	87	scene	indoor	1	0.5501359130139463
43.50252819404705	1	prelearning	violation	1	A	33	scene	outdoor	1	0.5101609319681302
46.50247798505006	1	prelearning	nonviolation	1	B	86	scene	outdoor	1	0.5992161119938828
49.5024277420016	1	prelearning	violation	1	B	34	scene	outdoor	1	0.4932623420027085
52.502376095042564	1	prelearning	violation	1	B	33	scene	outdoor	1	0.4643105629947968
55.502338819031145	1	prelearning	nonviolation	1	B	87	scene	outdoor	1	0.5493500260054134
58.502296841004856	1	prelearning	nonviolation	1	A	82	scene	indoor	1	0.8453951590345241
61.5022705400479	1	prelearning	nonviolation	1	A	83	scene	indoor	1	0.5374211139860563
64.5022150130244	1	prelearning	nonviolation	1	A	81	scene	outdoor	1	0.5854812309844419
67.50217334303306	1	prelearning	nonviolation	1	B	83	scene	outdoor	1	0.5595195969799533
70.50213641300796	1	prelearning	violation	1	A	39	scene	indoor	1	0.6505552820162848
73.50210943300044	1	prelearning	nonviolation	1	A	84	scene	indoor	1	0.6195804020389915
76.50205242203083	1	prelearning	violation	1	A	38	scene	outdoor	1	0.579642546013929
79.50202025903855	1	prelearning	nonviolation	1	A	88	scene	outdoor	1	0.6026713859755546
82.50198725803057	1	prelearning	nonviolation	1	B	82	scene	indoor	1	0.7397038759663701
85.50194299500436	1	prelearning	violation	1	B	39	scene	outdoor	1	0.6237549360375851
88.50188894901657	1	prelearning	violation	1	A	34	scene	outdoor	1	0.6778055119793862
91.50184844702015	1	prelearning	violation	1	B	38	scene	indoor	1	0.7438464399892837
94.5018064820324	1	prelearning	violation	1	B	36	scene	indoor	1	0.7208983409800567
97.50176427600672	1	prelearning	violation	1	A	35	scene	outdoor	1	0.5799336340278387
100.50172518001636	1	prelearning	violation	1	A	40	scene	indoor	1	0.4889728359994479
103.50169173104223	1	prelearning	violation	1	A	37	scene	indoor	1	0.5780146569595672
106.50164799200138	1	prelearning	violation	1	A	36	scene	indoor	1	0.5420522610074839
109.50160345999755	1	learning	violation	2	A	33	scene	outdoor	1	0.5410953360260464
112.50156364199938	1	learning	violation	2	B	33	scene	outdoor	1	0.734137712046504
115.50152025802528	1	learning	violation	2	A	34	scene	outdoor	1	0.5781776310177521
118.50147996703163	1	learning	violation	2	B	34	scene	outdoor	1	0.6232211329624988
121.5014365960378	1	learning	nonviolation	2	A	81	scene	outdoor	1	0.5722600179724395
124.50139725202463	1	learning	nonviolation	2	B	81	scene	indoor	1	0.6063007629709318
127.50136860000202	1	learning	nonviolation	2	A	82	scene	indoor	1	0.5803346000029705
130.5013224070426	1	learning	nonviolation	2	B	82	scene	indoor	1	0.5433815909782425
133.5012723110267	1	learning	violation	2	A	35	scene	outdoor	1	0.6794019949738868
136.5012323660194	1	learning	violation	2	B	35	scene	indoor	1	0.5493956769932993
139.50118979101535	1	learning	violation	2	A	36	scene	indoor	1	0.52851966698654
142.50115023500985	1	learning	violation	2	B	36	scene	indoor	1	0.6665561540285125
145.50111120403744	1	learning	violation	2	A	37	scene	indoor	1	0.6035892969812267
148.50106907601003	1	learning	violation	2	B	37	scene	outdoor	1	0.6056328450213186
151.50102566403802	1	learning	nonviolation	2	A	83	scene	indoor	1	0.5866761819925159
154.50098689901643	1	learning	nonviolation	2	B	83	scene	outdoor	1	0.6287267070147209
157.50095143000362	1	learning	violation	2	A	38	scene	outdoor	1	0.6137550610001199
160.50090420700144	1	learning	violation	2	B	38	scene	indoor	1	0.5508008780307136
163.50086291099433	1	learning	violation	2	A	39	scene	indoor	1	0.5968417600379325
166.50082586501958	1	learning	violation	2	B	39	scene	outdoor	1	0.5938762209843844
169.50077948102262	1	learning	nonviolation	2	A	84	scene	indoor	1	0.6109259609947912
172.50073706504193	1	learning	nonviolation	2	B	84	scene	indoor	1	0.5048885869910009
175.5007077860064	1	learning	violation	3	A	38	scene	outdoor	1	0.6069949429947883
178.50066368305127	1	learning	violation	3	B	38	scene	indoor	1	0.5620417989557609
181.50061508803628	1	learning	violation	3	A	34	scene	outdoor	1	0.5760902739712037
184.50057784002274	1	learning	violation	3	B	34	scene	outdoor	1	0.5300816289964132
187.50053407502128	1	learning	nonviolation	3	A	83	scene	indoor	1	0.5331700230017304
190.50050082203236	1	learning	nonviolation	3	B	83	scene	outdoor	1	0.5492103470023721
193.5004503270029	1	learning	violation	4	A	38	scene	outdoor	1	0.6192570159910247
196.50040447700303	1	learning	violation	4	B	38	scene	indoor	1	0.5463112550205551
199.5003663520329	1	learning	violation	3	A	37	scene	indoor	1	0.5863503650180064
202.50032503501282	1	learning	violation	3	B	37	scene	outdoor	1	0.6003863030346109
205.50028441101315	1	learning	nonviolation	3	A	81	scene	outdoor	1	0.5104273670003749
208.50025176099732	1	learning	nonviolation	3	B	81	scene	indoor	1	0.6084578430163674
211.50021060503784	1	learning	violation	3	A	35	scene	outdoor	1	0.6195023600012064
214.50016891100682	1	learning	violation	3	B	35	scene	indoor	1	0.6355491399881429
217.50011859700317	1	learning	nonviolation	4	A	83	scene	indoor	1	0.491595680010505
220.50007662700955	1	learning	nonviolation	4	B	83	scene	outdoor	1	0.5676319990307093
223.50003494502744	1	violation	violation	5	A	38	scene	outdoor	1	0.6286805790150538
226.49999507900796	1	violation	violation	1	X	38	face	female	1	0.7337190849939361
229.49995436205063	1	learning	violation	3	A	33	scene	outdoor	1	0.6367554029566236
232.4999084920273	1	learning	violation	3	B	33	scene	outdoor	1	0.5618052440113388
235.49986790004183	1	learning	violation	4	A	37	scene	indoor	1	0.6058429959812202
238.49982783501042	1	learning	violation	4	B	37	scene	outdoor	1	0.5788886300288141
241.49979734304358	1	learning	nonviolation	3	A	82	scene	indoor	1	0.5719206009525806
244.4997529510292	1	learning	nonviolation	3	B	82	scene	indoor	1	0.5449617690173909
247.4997102720081	1	learning	violation	3	A	39	scene	indoor	1	0.4890003140317276
250.49966197804318	1	learning	violation	3	B	39	scene	outdoor	1	0.5120515049784444
253.49961975199403	1	learning	violation	3	A	36	scene	indoor	1	0.5700988600146957
256.49957931804244	1	learning	violation	3	B	36	scene	indoor	1	0.6591396149597131
259.49953932804056	1	learning	violation	2	A	40	scene	indoor	1	0.5311841279617511
262.4995027560508	1	learning	violation	2	B	40	scene	indoor	1	0.5311643319437279
265.4994534120196	1	learning	nonviolation	4	A	82	scene	indoor	1	0.4372681829845533
268.4994199910434	1	learning	nonviolation	4	B	82	scene	indoor	1	0.5983009419869632
271.49937045399565	1	learning	nonviolation	3	A	84	scene	indoor	1	0.6233504120027646
274.49932984902995	1	learning	nonviolation	3	B	84	scene	indoor	1	0.4753864689846523
277.4992913730093	1	learning	violation	4	A	39	scene	indoor	1	0.4774261310230941
280.49924783804454	1	learning	violation	4	B	39	scene	outdoor	1	0.6123899109661579
283.49920371500775	1	restudy	violation	5	B	38	scene	indoor	1	0.5675157210207544
286.49916390300496	1	learning	violation	4	A	34	scene	outdoor	1	0.5445554330362938
289.49912148399744	1	learning	violation	4	B	34	scene	outdoor	1	0.5806064950302243
292.4990810500458	1	learning	violation	4	A	33	scene	outdoor	1	0.5866452159825712
295.49904066103045	1	learning	violation	4	B	33	scene	outdoor	1	0.5496634439914487
298.49900679802516	1	learning	nonviolation	4	A	81	scene	outdoor	1	0.4907167819910683
301.49896419403376	1	learning	nonviolation	4	B	81	scene	indoor	1	0.5527499379822984
304.4989132910268	1	learning	violation	4	A	35	scene	outdoor	1	0.5928121629985981
307.49887609004514	1	learning	violation	4	B	35	scene	indoor	1	0.5118476409697905
310.49883906502515	1	restudy	nonviolation	5	B	83	scene	outdoor	1	0.5658928379998542
313.4987907330505	1	restudy	nonviolation	5	B	81	scene	indoor	1	0.5249358849832788
316.49874835502123	1	restudy	nonviolation	5	B	82	scene	indoor	1	0.6569710039766505
319.49870569701307	1	learning	nonviolation	4	A	84	scene	indoor	1	0.5430190640036017
322.4986636720132	1	learning	nonviolation	4	B	84	scene	indoor	1	0.5570643140235916
325.4986219520215	1	learning	violation	4	A	36	scene	indoor	1	0.5320999309769832
328.4985841370072	1	learning	violation	4	B	36	scene	indoor	1	0.6301411290187389
331.4985396050033	1	violation	violation	5	A	37	scene	indoor	1	0.5351920180255547
334.4985037480365	1	violation	violation	1	X	37	face	male	1	0.6952261590049602
337.4984562460449	1	violation	violation	5	A	33	scene	outdoor	1	0.9962711249827408
340.4984233280411	1	violation	violation	1	X	33	face	male	0	0.6843010349548422
343.4983815739979	1	learning	violation	3	A	40	scene	indoor	1	0.7393744400469586
346.4983324000496	1	learning	violation	3	B	40	scene	indoor	1	0.5913147479877807
349.49829098401824	1	violation	violation	5	A	34	scene	outdoor	1	0.5774398100329563
352.49825411901116	1	violation	violation	1	X	34	face	male	1	0.7074749050079845
355.49821697501466	1	violation	violation	6	A	38	scene	outdoor	1	0.5905146169825457
358.498169797007	1	violation	violation	1	Y	38	face	female	1	0.6925601530238055
361.4981290450087	1	restudy	nonviolation	6	B	82	scene	indoor	1	0.5646036739926785
364.4814043249935	1	violation	violation	5	A	39	scene	indoor	1	0.5783263840130529
367.4980421820074	1	violation	violation	1	X	39	face	male	1	0.7086909420322627
370.48131902399473	1	restudy	nonviolation	6	B	83	scene	outdoor	1	0.6134130420396104
373.4812807450071	1	learning	nonviolation	2	A	85	scene	outdoor	1	0.6994518639985472
376.49791611003457	1	learning	nonviolation	2	B	85	scene	outdoor	1	0.5558117189793848
379.48120510799345	1	learning	nonviolation	2	A	86	scene	outdoor	1	0.5625343000283465
382.48116002202727	1	learning	nonviolation	2	B	86	scene	outdoor	1	0.5775761799886823
385.48111787904054	1	learning	nonviolation	2	A	87	scene	indoor	1	0.7456424569827504
388.48107880802127	1	learning	nonviolation	2	B	87	scene	outdoor	1	0.5656638619839214
391.48103527899366	1	restudy	nonviolation	6	B	81	scene	indoor	1	0.5867001120350324
394.48099381203065	1	restudy	violation	5	B	37	scene	outdoor	1	0.5326555849751458
397.48097067902563	1	learning	nonviolation	3	A	87	scene	indoor	1	0.6207696709898299
400.48091056803236	1	learning	nonviolation	3	B	87	scene	outdoor	1	0.6948228699620813
403.4808734400431	1	violation	violation	5	A	35	scene	outdoor	1	0.5128684119554237
406.48082761804113	1	violation	violation	1	X	35	face	female	1	0.7199090360081755
409.4807927350048	1	restudy	violation	5	B	34	scene	outdoor	1	0.5859354140120558
412.48074781999463	1	violation	violation	5	A	36	scene	indoor	1	0.674985955003649
415.4807004310424	1	violation	violation	1	X	36	face	female	1	0.6470359459635802
418.4806638910086	1	restudy	violation	5	B	35	scene	indoor	1	0.5480731719871983
421.4806320790085	1	restudy	nonviolation	5	B	84	scene	indoor	1	0.5391135410172865
424.4805810890392	1	learning	nonviolation	3	A	86	scene	outdoor	1	0.5311595259699969
427.48053535900544	1	learning	nonviolation	3	B	86	scene	outdoor	1	0.5212006960064173
430.4804985210066	1	restudy	violation	5	B	33	scene	outdoor	1	0.7482364530442283
433.48045577900484	1	restudy	violation	5	B	39	scene	outdoor	1	0.5052692710305564
436.4804093470448	1	learning	violation	4	A	40	scene	indoor	1	0.5823324039811268
439.48037510400167	1	learning	violation	4	B	40	scene	indoor	1	0.5463913060375489
442.4803306800313	1	learning	nonviolation	2	A	88	scene	outdoor	1	0.5364091629744507
445.48028476000763	1	learning	nonviolation	2	B	88	scene	indoor	1	0.5984566620318219
448.4802529950394	1	restudy	violation	6	B	38	scene	indoor	1	0.6044879870023578
451.4802043980454	1	violation	violation	6	A	33	scene	outdoor	1	0.5795370559790172
454.4801599960192	1	violation	violation	1	Y	33	face	male	1	0.8155804270063527
457.4801257780055	1	learning	nonviolation	4	A	87	scene	indoor	1	0.6076162080280483
460.4800846850266	1	learning	nonviolation	4	B	87	scene	outdoor	1	0.7326186239952222
463.48004791204585	1	violation	violation	6	A	34	scene	outdoor	1	0.5726991129922681
466.48001212801313	1	violation	violation	1	Y	34	face	male	1	0.7387554150191136
469.47996986604994	1	learning	nonviolation	3	A	85	scene	outdoor	1	0.6217728059855289
472.4799086030107	1	learning	nonviolation	3	B	85	scene	outdoor	1	0.4908385900198482
475.47988357004937	1	violation	violation	5	A	40	scene	indoor	1	0.6088569900020957
478.47983196499985	1	violation	violation	1	X	40	face	female	1	0.619911072019022
481.47980051103514	1	violation	violation	6	A	37	scene	indoor	1	0.5719486699672416
484.4797574080294	1	violation	violation	1	Y	37	face	male	1	0.7729923619772308
487.47971617704025	1	learning	nonviolation	4	A	86	scene	outdoor	1	0.5200356729910709
490.47966488602106	1	learning	nonviolation	4	B	86	scene	outdoor	1	0.5900794049957767
493.47963420400635	1	learning	nonviolation	4	A	85	scene	outdoor	1	0.5491123190149665
496.47959076199913	1	learning	nonviolation	4	B	85	scene	outdoor	1	0.5311577900429256
499.47955587500473	1	restudy	violation	5	B	36	scene	indoor	1	0.5811925400048494
502.47950398200186	1	violation	violation	6	A	39	scene	indoor	1	0.5182395850424655
505.47945495601743	1	violation	violation	1	Y	39	face	male	1	0.5742970170103945
508.47941297100624	1	learning	nonviolation	3	A	88	scene	outdoor	1	0.696330871025566
511.4793846020475	1	learning	nonviolation	3	B	88	scene	indoor	1	0.6163676559808664
514.4793310530366	1	restudy	nonviolation	6	B	84	scene	indoor	1	0.6404205919825472
517.479294682038	1	violation	violation	6	A	35	scene	outdoor	1	0.6544535119901411
520.4792469440143	1	violation	violation	1	Y	35	face	female	1	0.6985008449992165
523.4792055780417	1	learning	nonviolation	4	A	88	scene	outdoor	1	0.5275466509629041
526.4791651990381	1	learning	nonviolation	4	B	88	scene	indoor	1	0.5765873119817115
529.4791373159968	1	restudy	violation	6	B	34	scene	outdoor	1	0.5636160060530528
532.4790791430278	1	restudy	nonviolation	5	B	87	scene	outdoor	1	0.5106720249750651
535.4790381600033	1	violation	violation	6	A	36	scene	indoor	1	0.5857164080371149
538.4789944630465	1	violation	violation	1	Y	36	face	female	1	0.5887555519584566
541.4789638160146	1	restudy	violation	6	B	37	scene	outdoor	1	0.6017914150143042
544.4789123670198	1	restudy	violation	6	B	33	scene	outdoor	1	0.6028472639736719
547.4788735790062	1	restudy	violation	6	B	39	scene	outdoor	1	0.5768835089984351
550.4788235260057	1	restudy	violation	5	B	40	scene	indoor	1	0.6349392140400596
553.4787884830148	1	restudy	nonviolation	5	B	88	scene	indoor	1	0.6279647329938598
556.4787455910118	1	restudy	nonviolation	5	B	85	scene	outdoor	1	0.7060065040132031
559.478701545042	1	restudy	nonviolation	6	B	87	scene	outdoor	1	0.6400528099620715
562.4786627000431	1	restudy	violation	6	B	35	scene	indoor	1	0.8060975249973126
565.4786201230017	1	restudy	nonviolation	5	B	86	scene	outdoor	1	0.5951427920372225
568.4785772780306	1	restudy	nonviolation	6	B	85	scene	outdoor	1	0.5441804999718443
571.4785349290469	1	restudy	violation	6	B	36	scene	indoor	1	0.6521678779972717
574.4785010089981	1	violation	violation	6	A	40	scene	indoor	1	0.6192558470065705
577.4784542220295	1	violation	violation	1	Y	40	face	female	1	0.823299222975038
580.4784134789953	1	restudy	nonviolation	6	B	86	scene	outdoor	1	0.5373477440443821
583.4783772460069	1	restudy	nonviolation	6	B	88	scene	indoor	1	0.6203820230439305
586.4783341430011	1	restudy	violation	6	B	40	scene	indoor	1	0.576419284043368
