onset	duration	trial_type	condition	repetition	pairmate	pairID	category	subcategory	response_accuracy	response_time
13.500918296049347	1	prelearning	nonviolation	1	B	67	scene	indoor	0	0.5747277840273455
16.500897638034075	1	prelearning	nonviolation	1	A	66	scene	indoor	1	0.34274361899588257
19.50085862504784	1	prelearning	nonviolation	1	A	67	scene	outdoor	0	0.38378740998450667
22.50081944500561	1	prelearning	nonviolation	1	B	66	scene	outdoor	1	0.3778296869713813
25.50079435599036	1	prelearning	nonviolation	1	A	69	scene	indoor	1	0.4538522950606421
28.50073036900721	1	prelearning	nonviolation	1	A	65	scene	outdoor	1	0.4489133639726788
31.500692376052033	1	prelearning	nonviolation	1	B	70	scene	indoor	1	0.38995044992771
34.50066479900852	1	prelearning	nonviolation	1	B	71	scene	outdoor	1	0.3819841630756855
37.50061921903398	1	prelearning	nonviolation	1	A	70	scene	indoor	0	0.4630236499942839
40.50057358504272	1	prelearning	violation	1	B	17	scene	indoor	1	0.5770714329555631
43.500532018020756	1	prelearning	nonviolation	1	B	69	scene	outdoor	1	0.5931157850427553
46.50050231104251	1	prelearning	violation	1	A	21	scene	indoor	0	0.29814540199004114
49.50046233006289	1	prelearning	violation	1	B	22	scene	outdoor	1	0.3241822539130226
52.500412250054076	1	prelearning	nonviolation	1	B	65	scene	outdoor	0	0.31923555198591197
55.50037218199577	1	prelearning	violation	1	A	19	scene	indoor	1	0.4662785379914567
58.50032784300856	1	prelearning	nonviolation	1	B	68	scene	indoor	1	0.42031831701751793
61.500292057986364	1	prelearning	violation	1	B	19	scene	indoor	1	0.4463494810042903
64.5002480400726	1	prelearning	nonviolation	1	B	72	scene	indoor	1	0.5234027279075235
67.50021461804863	1	prelearning	violation	1	A	20	scene	indoor	1	0.5694425660185516
70.50017224007752	1	prelearning	violation	1	A	24	scene	outdoor	1	0.5024766519200057
73.5001310610678	1	prelearning	nonviolation	1	A	72	scene	indoor	1	0.6045231679454446
76.50008799799251	1	prelearning	violation	1	B	21	scene	outdoor	1	0.7695621090242639
79.50006021105219	1	prelearning	violation	1	A	22	scene	outdoor	1	0.6605924549512565
82.50001164106651	1	prelearning	violation	1	A	18	scene	outdoor	1	0.7816429809900001
85.49997558107135	1	prelearning	nonviolation	1	A	68	scene	outdoor	1	0.834612809936516
88.49993443500715	1	prelearning	violation	1	A	17	scene	outdoor	1	0.657723193988204
91.49988899799065	1	prelearning	violation	1	B	23	scene	indoor	0	0.8447591800941154
94.49985889997332	1	prelearning	violation	1	B	20	scene	outdoor	1	0.5687944020610303
97.49981558707077	1	prelearning	violation	1	A	23	scene	indoor	1	0.5448376819258556
100.49976643105038	1	prelearning	violation	1	B	18	scene	indoor	1	0.7658906630240381
103.49972788407469	1	prelearning	nonviolation	1	A	71	scene	outdoor	1	0.6419498079922049
106.49968615698162	1	prelearning	violation	1	B	24	scene	outdoor	1	0.7389676379971206
109.499646982993	1	learning	violation	2	A	17	scene	outdoor	1	0.7330106160370633
112.49961594305931	1	learning	violation	2	B	17	scene	indoor	0	0.7960421380121261
115.49956329807173	1	learning	violation	2	A	18	scene	outdoor	1	0.6740908599458635
118.49952383700293	1	learning	violation	2	B	18	scene	indoor	1	0.8441301820566878
121.49949475307949	1	learning	violation	2	A	19	scene	indoor	1	0.9211546849692241
124.49944946705364	1	learning	violation	2	B	19	scene	indoor	0	0.8982078289845958
127.49940234201496	1	learning	nonviolation	2	A	65	scene	outdoor	1	0.8652519270544872
130.49936813104432	1	learning	nonviolation	2	B	65	scene	outdoor	1	0.9712904809275642
133.49932263605294	1	learning	violation	2	A	20	scene	indoor	1	0.8523407960310578
136.499289622996	1	learning	violation	2	B	20	scene	outdoor	1	0.5283681120490655
139.49923912703522	1	learning	nonviolation	2	A	66	scene	indoor	1	0.6534210790414363
142.4992000060156	1	learning	nonviolation	2	B	66	scene	outdoor	1	0.8044623610330746
145.49915915599559	1	learning	violation	2	A	21	scene	indoor	1	0.8085014930693433
148.49912067700643	1	learning	violation	2	B	21	scene	outdoor	1	0.9515363670652732
151.49907566606996	1	learning	nonviolation	2	A	67	scene	outdoor	1	1.0635831909021365
154.4990402300609	1	learning	nonviolation	2	B	67	scene	indoor	0	0.8456246169516817
157.49900626507588	1	learning	violation	2	A	22	scene	outdoor	1	0.6786196969915181
160.4989632620709	1	learning	violation	2	B	22	scene	outdoor	1	0.8086623119888827
163.498921998078	1	learning	violation	3	A	21	scene	indoor	1	0.6717404109658673
166.4988765970338	1	learning	violation	3	B	21	scene	outdoor	1	0.6557872210396454
169.49883510207292	1	learning	violation	3	A	17	scene	outdoor	1	0.6278291789349169
172.49879478907675	1	learning	violation	3	B	17	scene	indoor	0	0.7778764899121597
175.49876294098792	1	learning	nonviolation	2	A	68	scene	outdoor	1	0.5719018339877948
178.49871363502461	1	learning	nonviolation	2	B	68	scene	indoor	1	0.5359542609658092
181.49867336603347	1	learning	nonviolation	3	A	66	scene	indoor	1	0.9169906920287758
184.49863172404	1	learning	nonviolation	3	B	66	scene	outdoor	1	0.5910626270342618
187.49860194697976	1	learning	nonviolation	3	A	65	scene	outdoor	1	0.6740645091049373
190.49855230201499	1	learning	nonviolation	3	B	65	scene	outdoor	1	0.7611116149928421
193.49851751502138	1	learning	violation	2	A	23	scene	indoor	1	0.5971446729963645
196.49847566499372	1	learning	violation	2	B	23	scene	indoor	1	0.6641966220922768
199.4984293109737	1	learning	violation	3	A	22	scene	outdoor	1	0.4482392850331962
202.49838785897012	1	learning	violation	3	B	22	scene	outdoor	1	0.6362829850986601
205.49834502907467	1	learning	violation	3	A	18	scene	outdoor	1	0.8313219449482858
208.49830562598072	1	learning	violation	3	B	18	scene	indoor	0	0.8023632420226932
211.49826677003875	1	learning	nonviolation	3	A	68	scene	outdoor	1	0.542402526945807
214.49822064198085	1	learning	nonviolation	3	B	68	scene	indoor	1	0.5474451520713046
217.49818138603587	1	learning	violation	3	A	19	scene	indoor	1	0.5614937340142205
220.4981427770108	1	learning	violation	3	B	19	scene	indoor	1	0.7855291829910129
223.49810117203742	1	learning	violation	2	A	24	scene	outdoor	1	0.6235705219442025
226.49806229700332	1	learning	violation	2	B	24	scene	outdoor	0	0.6806076479842886
229.4980200689752	1	learning	nonviolation	2	A	69	scene	indoor	0	1.0535787590779364
232.49798759201082	1	learning	nonviolation	2	B	69	scene	outdoor	1	0.7176869950490072
235.49797539401334	1	learning	violation	3	A	23	scene	indoor	1	0.7236954210093245
238.49789590702858	1	learning	violation	3	B	23	scene	indoor	1	0.6717474029865116
241.49786304705776	1	learning	violation	4	A	18	scene	outdoor	1	0.6298122269799933
244.4978243500227	1	learning	violation	4	B	18	scene	indoor	1	0.6698489580303431
247.49778524599967	1	learning	violation	3	A	20	scene	indoor	1	0.5588957420550287
250.4977362210629	1	learning	violation	3	B	20	scene	outdoor	1	0.8169319389853626
253.49769941798883	1	learning	nonviolation	4	A	65	scene	outdoor	0	0.9619796740589664
256.49765218503313	1	learning	nonviolation	4	B	65	scene	outdoor	1	0.8990210070041941
259.4976079890039	1	learning	violation	4	A	21	scene	indoor	1	0.6770670319674537
262.4976035320433	1	learning	violation	4	B	21	scene	outdoor	0	0.765068385982886
265.4975292660529	1	learning	nonviolation	3	A	67	scene	outdoor	1	0.6251474079908803
268.4974884759868	1	learning	nonviolation	3	B	67	scene	indoor	0	0.9791875750524924
271.4974542880664	1	learning	nonviolation	2	A	70	scene	indoor	0	0.698222636943683
274.4974338969914	1	learning	nonviolation	2	B	70	scene	indoor	1	0.4372423390159384
277.4973659990356	1	learning	violation	4	A	19	scene	indoor	1	0.5442953320452943
280.49732628208585	1	learning	violation	4	B	19	scene	indoor	1	0.6263527449918911
283.4972834220389	1	learning	violation	4	A	17	scene	outdoor	1	0.4693936239928007
286.49724324105773	1	learning	violation	4	B	17	scene	indoor	1	0.5264392159879208
289.49720417300705	1	learning	nonviolation	4	A	66	scene	indoor	1	0.6474785660393536
292.4971695910208	1	learning	nonviolation	4	B	66	scene	outdoor	1	0.7835070890141651
295.49712999607436	1	learning	nonviolation	4	A	67	scene	outdoor	1	0.8735484809149057
298.49708627699874	1	learning	nonviolation	4	B	67	scene	indoor	0	0.6255885859718546
301.49704899499187	1	learning	violation	3	A	24	scene	outdoor	1	0.6165959159843624
304.4970062630018	1	learning	violation	3	B	24	scene	outdoor	0	0.6626710069831461
307.49696374405175	1	learning	violation	4	A	22	scene	outdoor	1	0.4917087409412488
310.4969236060278	1	learning	violation	4	B	22	scene	outdoor	1	0.571758524980396
313.49687584105413	1	violation	violation	5	A	17	scene	outdoor	1	0.4718062119791284
316.496833870071	1	violation	violation	1	X	17	face	female	1	0.6578153049340472
319.4967919699848	1	learning	nonviolation	4	A	68	scene	outdoor	1	0.6958921330515295
322.4967517220648	1	learning	nonviolation	4	B	68	scene	indoor	1	0.6019327489193529
325.49670672102366	1	learning	violation	4	A	23	scene	indoor	1	0.5539786349982023
328.496672926005	1	learning	violation	4	B	23	scene	indoor	1	0.6170105560449883
331.4966364620486	1	restudy	nonviolation	5	B	65	scene	outdoor	1	0.6070487570250407
334.49658286501653	1	learning	nonviolation	3	A	69	scene	indoor	0	0.7011043960228562
337.49655264406465	1	learning	nonviolation	3	B	69	scene	outdoor	1	0.5611302920151502
340.49650657607714	1	learning	violation	4	A	24	scene	outdoor	1	0.7641772179631516
343.49646420497453	1	learning	violation	4	B	24	scene	outdoor	1	0.7522372860694304
346.49642355297686	1	restudy	nonviolation	6	B	65	scene	outdoor	1	0.4472648600349203
349.4963915570406	1	violation	violation	5	A	21	scene	indoor	1	1.1172958519309757
352.49635370203765	1	violation	violation	1	X	21	face	male	1	0.62433364498429
355.4796211220091	1	violation	violation	5	A	18	scene	outdoor	1	0.6290721630211921
358.47959005204035	1	violation	violation	1	X	18	face	female	1	0.5131007640156895
361.4962237960426	1	restudy	nonviolation	5	B	68	scene	indoor	1	0.7794676800258458
364.496183020994	1	learning	violation	4	A	20	scene	indoor	1	0.5445115870097652
367.4794632920529	1	learning	violation	4	B	20	scene	outdoor	1	0.4752223140094429
370.47941437701235	1	violation	violation	5	A	19	scene	indoor	1	0.43228269799146796
373.4793770600809	1	violation	violation	1	X	19	face	female	1	0.6163067650049925
376.4793424860109	1	restudy	nonviolation	5	B	66	scene	outdoor	1	0.6353445249842479
379.4793024429818	1	learning	nonviolation	3	A	70	scene	indoor	1	0.5393924470990896
382.47925842297263	1	learning	nonviolation	3	B	70	scene	indoor	1	0.49543552310206
385.47922276798636	1	restudy	violation	5	B	17	scene	indoor	1	0.43447014002595097
388.4791949080536	1	learning	nonviolation	2	A	71	scene	outdoor	1	0.4404987959424034
391.479142795084	1	learning	nonviolation	2	B	71	scene	outdoor	1	0.3795511889038608
394.4791073980741	1	restudy	nonviolation	6	B	68	scene	indoor	1	0.5755868928972632
397.47908531501884	1	restudy	nonviolation	5	B	67	scene	indoor	1	0.5066135140368715
400.4790143050486	1	learning	nonviolation	4	A	69	scene	indoor	1	0.5666722659952939
403.47897418402135	1	learning	nonviolation	4	B	69	scene	outdoor	1	0.4827163560548797
406.4789341030409	1	violation	violation	5	A	22	scene	outdoor	1	0.5147599789779633
409.4788917340338	1	violation	violation	1	X	22	face	male	1	0.5668035669950768
412.4788564760238	1	violation	violation	5	A	20	scene	indoor	1	0.5498356389580294
415.47882184397895	1	violation	violation	1	X	20	face	male	1	0.43587457202374935
418.4787687410135	1	violation	violation	6	A	17	scene	outdoor	1	0.4899254640331492
421.4787423990202	1	violation	violation	1	Y	17	face	female	1	0.4649567870656029
424.4786957120523	1	restudy	violation	5	B	18	scene	indoor	1	0.4559162579244002
427.4786437720759	1	violation	violation	5	A	23	scene	indoor	1	0.4420527609763667
430.47860930801835	1	violation	violation	1	X	23	face	female	1	0.6200818399665877
433.47856674401567	1	restudy	violation	5	B	19	scene	indoor	1	0.6871266419766471
436.4785278079798	1	violation	violation	5	A	24	scene	outdoor	1	0.5591729939915239
439.47849892801605	1	violation	violation	1	X	24	face	male	1	0.4911865959875286
442.4784424040699	1	restudy	nonviolation	6	B	66	scene	outdoor	1	0.4982622169191018
445.47840395197267	1	learning	nonviolation	3	A	71	scene	outdoor	1	0.3972192330984399
448.4783738340484	1	learning	nonviolation	3	B	71	scene	outdoor	1	0.5933272079564631
451.47832081106026	1	restudy	violation	5	B	21	scene	outdoor	1	0.6043848500121385
454.4782773570623	1	learning	nonviolation	4	A	70	scene	indoor	1	0.5434226170182228
457.47824418102385	1	learning	nonviolation	4	B	70	scene	indoor	1	0.5324568490032107
460.47819646901917	1	violation	violation	6	A	19	scene	indoor	1	0.5375040819635615
463.4781630469952	1	violation	violation	1	Y	19	face	female	1	0.6395343500189483
466.4781100370456	1	restudy	nonviolation	6	B	67	scene	indoor	1	0.796588841942139
469.47808982105926	1	restudy	violation	6	B	17	scene	indoor	1	0.5686148689128458
472.4780341860605	1	restudy	violation	5	B	23	scene	indoor	1	0.45667349093128
475.47800169000396	1	restudy	violation	5	B	20	scene	outdoor	1	0.6326237650355324
478.47796491207566	1	violation	violation	6	A	21	scene	indoor	1	0.6837344769155607
481.4779127140063	1	violation	violation	1	Y	21	face	male	1	0.5167911030584946
484.4778825159883	1	violation	violation	6	A	23	scene	indoor	1	0.5218208840815349
487.4778380490607	1	violation	violation	1	Y	23	face	female	1	0.5888663450023159
490.4777914870065	1	restudy	nonviolation	5	B	69	scene	outdoor	1	0.9619116879766808
493.47775465506135	1	violation	violation	6	A	18	scene	outdoor	1	0.6239567369921133
496.47770888707606	1	violation	violation	1	Y	18	face	female	1	0.5319950859993696
499.47767585900147	1	learning	nonviolation	2	A	72	scene	indoor	1	0.5830278180073947
502.47762558807153	1	learning	nonviolation	2	B	72	scene	indoor	1	0.5890796119347215
505.47758451197296	1	restudy	violation	5	B	22	scene	outdoor	1	0.8611226150533184
508.47754262003576	1	restudy	violation	5	B	24	scene	outdoor	1	0.4891687190392986
511.47749944403773	1	restudy	nonviolation	5	B	70	scene	indoor	1	0.4822063120082021
514.477467263001	1	restudy	nonviolation	6	B	69	scene	outdoor	1	0.7762665780028328
517.4774272179931	1	restudy	violation	6	B	18	scene	indoor	1	0.5952775090700015
520.4773769989843	1	learning	nonviolation	4	A	71	scene	outdoor	0	0.3943347600288689
523.4773400060367	1	learning	nonviolation	4	B	71	scene	outdoor	1	0.5093704409664497
526.4773027580231	1	restudy	violation	6	B	19	scene	indoor	1	0.43340494902804494
529.4772615439724	1	learning	nonviolation	3	A	72	scene	indoor	1	0.5624473170610145
532.4772091699997	1	learning	nonviolation	3	B	72	scene	indoor	1	0.6844966320786625
535.4771721570287	1	restudy	nonviolation	5	B	71	scene	outdoor	1	0.6035430750343949
538.4771386360517	1	restudy	violation	6	B	21	scene	outdoor	1	0.3725408889586106
541.4771045270609	1	learning	nonviolation	4	A	72	scene	indoor	1	0.4246047089109197
544.4770472560776	1	learning	nonviolation	4	B	72	scene	indoor	1	0.5296640619635582
547.4770093080588	1	restudy	nonviolation	6	B	70	scene	indoor	1	0.4357028129743412
550.4769672030816	1	restudy	nonviolation	6	B	71	scene	outdoor	1	0.5797485678922385
553.476929388009	1	violation	violation	6	A	20	scene	indoor	1	0.6427848850144073
556.4768861440243	1	violation	violation	1	Y	20	face	male	0	0.5618244979996234
559.4768457980826	1	violation	violation	6	A	22	scene	outdoor	1	0.5398704629624262
562.4768089780118	1	violation	violation	1	Y	22	face	male	1	0.4859070599777624
565.4767694739858	1	restudy	nonviolation	5	B	72	scene	indoor	1	0.6269456670852378
568.4767203379887	1	restudy	violation	6	B	23	scene	indoor	1	0.6119901370257139
571.4766839720542	1	restudy	violation	6	B	22	scene	outdoor	1	0.5390335629926994
574.4766490110196	1	violation	violation	6	A	24	scene	outdoor	1	0.4970720449928194
577.4766117050312	1	violation	violation	1	Y	24	face	male	1	0.4931076959474012
580.4765573909972	1	restudy	violation	6	B	20	scene	outdoor	1	0.7661585219902918
583.4765113830799	1	restudy	nonviolation	6	B	72	scene	indoor	1	0.6541875769617036
586.4764691770542	1	restudy	violation	6	B	24	scene	outdoor	0	0.6722441270248964
