onset	duration	trial_type	reward_condition	condition	repetition	pairmate	pairID	response_accuracy	response_time
13.507959252921864	2.5	scene	neutral	violation	3.0	A	28.0	1.0	0.6975183080649003
16.007959252921864	3.0	feedback	n/a	n/a	n/a	n/a	n/a	n/a	n/a
19.507882406935092	2.5	scene	reward	violation	3.0	A	22.0	1.0	0.7115031200228259
22.007882406935096	3.0	feedback	n/a	n/a	n/a	n/a	n/a	n/a	n/a
25.50780400796793	2.5	scene	neutral	nonviolation	3.0	A	91.0	1.0	0.6066559540340677
28.00780400796793	3.0	feedback	n/a	n/a	n/a	n/a	n/a	n/a	n/a
31.507840542937625	2.5	scene	reward	nonviolation	3.0	A	82.0	1.0	0.6636462609749287
34.00784054293763	3.0	feedback	n/a	n/a	n/a	n/a	n/a	n/a	n/a
37.507645405014046	2.5	scene	reward	nonviolation	3.0	A	63.0	1.0	0.8548288469901308
40.007645405014046	3.0	feedback	n/a	n/a	n/a	n/a	n/a	n/a	n/a
43.50757109594996	2.5	scene	neutral	nonviolation	3.0	A	60.0	1.0	0.6259013679809868
46.00757109594996	3.0	feedback	n/a	n/a	n/a	n/a	n/a	n/a	n/a
49.507489377981976	2.5	scene	neutral	violation	3.0	A	46.0	1.0	0.6299756779335439
52.007489377981976	3.0	feedback	n/a	n/a	n/a	n/a	n/a	n/a	n/a
55.50740759994368	2.5	scene	neutral	nonviolation	3.0	A	75.0	1.0	0.5400629760697484
58.00740759994368	3.0	feedback	n/a	n/a	n/a	n/a	n/a	n/a	n/a
61.50732949399389	2.5	scene	neutral	violation	3.0	A	13.0	1.0	0.5751381940208375
64.00732949399391	3.0	feedback	n/a	n/a	n/a	n/a	n/a	n/a	n/a
67.5072506009601	2.5	scene	neutral	nonviolation	3.0	A	49.0	1.0	0.595234408043325
70.0072506009601	3.0	feedback	n/a	n/a	n/a	n/a	n/a	n/a	n/a
73.50717224692926	2.5	scene	neutral	violation	3.0	A	19.0	1.0	0.8442944460548459
76.00717224692926	3.0	feedback	n/a	n/a	n/a	n/a	n/a	n/a	n/a
79.50709514296614	2.5	scene	reward	violation	3.0	A	15.0	1.0	0.8363863379927352
82.00709514296614	3.0	feedback	n/a	n/a	n/a	n/a	n/a	n/a	n/a
85.50702088396066	2.5	scene	reward	nonviolation	3.0	A	74.0	1.0	0.7824531070655212
88.00702088396065	3.0	feedback	n/a	n/a	n/a	n/a	n/a	n/a	n/a
91.50693752698136	2.5	scene	neutral	nonviolation	3.0	A	70.0	1.0	0.6025351339485496
94.00693752698136	3.0	feedback	n/a	n/a	n/a	n/a	n/a	n/a	n/a
97.5068584639812	2.5	scene	neutral	violation	3.0	A	47.0	0.0	0.6286142839817329
100.0068584639812	3.0	feedback	n/a	n/a	n/a	n/a	n/a	n/a	n/a
103.50678044301458	2.5	scene	neutral	nonviolation	3.0	A	52.0	1.0	0.6616187769686803
106.00678044301458	3.0	feedback	n/a	n/a	n/a	n/a	n/a	n/a	n/a
109.50670092599466	2.5	scene	neutral	violation	3.0	A	33.0	1.0	0.9337764399824664
112.00670092599466	3.0	feedback	n/a	n/a	n/a	n/a	n/a	n/a	n/a
115.50662193493919	2.5	scene	neutral	violation	3.0	A	2.0	1.0	0.8418597970157862
118.00662193493919	3.0	feedback	n/a	n/a	n/a	n/a	n/a	n/a	n/a
121.50655120401643	2.5	scene	reward	violation	3.0	A	9.0	1.0	0.8948456989601254
124.00655120401643	3.0	feedback	n/a	n/a	n/a	n/a	n/a	n/a	n/a
127.50646362500264	2.5	scene	neutral	violation	3.0	A	30.0	1.0	0.6660213709110394
130.00646362500262	3.0	feedback	n/a	n/a	n/a	n/a	n/a	n/a	n/a
133.5063851979794	2.5	scene	neutral	violation	3.0	A	24.0	1.0	0.7981006460031494
136.0063851979794	3.0	feedback	n/a	n/a	n/a	n/a	n/a	n/a	n/a
139.50630562996955	2.5	scene	reward	nonviolation	3.0	A	61.0	1.0	1.221170692006126
142.00630562996955	3.0	feedback	n/a	n/a	n/a	n/a	n/a	n/a	n/a
145.5062266519526	2.5	scene	reward	nonviolation	3.0	A	68.0	1.0	0.8552533739712089
148.0062266519526	3.0	feedback	n/a	n/a	n/a	n/a	n/a	n/a	n/a
151.50614579196554	2.5	scene	neutral	nonviolation	3.0	A	80.0	1.0	0.6773359599756077
154.00614579196554	3.0	feedback	n/a	n/a	n/a	n/a	n/a	n/a	n/a
157.5060689789243	2.5	scene	neutral	violation	3.0	A	11.0	1.0	0.977411802043207
160.0060689789243	3.0	feedback	n/a	n/a	n/a	n/a	n/a	n/a	n/a
163.50599095993675	2.5	scene	neutral	nonviolation	3.0	A	89.0	1.0	0.682489369995892
166.00599095993675	3.0	feedback	n/a	n/a	n/a	n/a	n/a	n/a	n/a
169.50590794696473	2.5	scene	neutral	violation	3.0	A	1.0	1.0	0.7576571960235015
172.00590794696473	3.0	feedback	n/a	n/a	n/a	n/a	n/a	n/a	n/a
175.5058307299623	2.5	scene	reward	violation	3.0	A	34.0	1.0	1.3186531469691545
178.0058307299623	3.0	feedback	n/a	n/a	n/a	n/a	n/a	n/a	n/a
181.50575094495437	2.5	scene	reward	violation	3.0	A	29.0	1.0	0.7407404209952801
184.00575094495437	3.0	feedback	n/a	n/a	n/a	n/a	n/a	n/a	n/a
187.50567187892742	2.5	scene	neutral	nonviolation	3.0	A	65.0	1.0	0.8907959130592644
190.00567187892742	3.0	feedback	n/a	n/a	n/a	n/a	n/a	n/a	n/a
193.5055911359377	2.5	scene	reward	violation	3.0	A	43.0	1.0	0.8359011249849573
196.0055911359377	3.0	feedback	n/a	n/a	n/a	n/a	n/a	n/a	n/a
199.5055125770159	2.5	scene	reward	violation	3.0	A	6.0	1.0	0.9988967629615216
202.0055125770159	3.0	feedback	n/a	n/a	n/a	n/a	n/a	n/a	n/a
205.50543515698516	2.5	scene	reward	violation	3.0	A	32.0	1.0	0.7890587169677019
208.00543515698516	3.0	feedback	n/a	n/a	n/a	n/a	n/a	n/a	n/a
211.4887291790219	2.5	scene	reward	nonviolation	3.0	A	88.0	1.0	0.8787679439410567
213.9887291790219	3.0	feedback	n/a	n/a	n/a	n/a	n/a	n/a	n/a
217.4886056570104	2.5	scene	neutral	violation	3.0	A	37.0	1.0	1.4018916429486126
219.9886056570104	3.0	feedback	n/a	n/a	n/a	n/a	n/a	n/a	n/a
223.48853063094433	2.5	scene	reward	violation	3.0	A	41.0	1.0	0.7089683590456843
225.98853063094433	3.0	feedback	n/a	n/a	n/a	n/a	n/a	n/a	n/a
229.48844884301067	2.5	scene	neutral	nonviolation	3.0	A	83.0	1.0	0.6609664089046419
231.98844884301067	3.0	feedback	n/a	n/a	n/a	n/a	n/a	n/a	n/a
235.48837057198398	2.5	scene	reward	nonviolation	3.0	A	69.0	1.0	0.7701218429720029
237.98837057198398	3.0	feedback	n/a	n/a	n/a	n/a	n/a	n/a	n/a
241.488291761023	2.5	scene	reward	nonviolation	3.0	A	90.0	1.0	1.120202588965185
243.988291761023	3.0	feedback	n/a	n/a	n/a	n/a	n/a	n/a	n/a
247.48821341199798	2.5	scene	reward	nonviolation	3.0	A	53.0	1.0	0.7502414799528196
249.98821341199798	3.0	feedback	n/a	n/a	n/a	n/a	n/a	n/a	n/a
253.488131170976	2.5	scene	neutral	nonviolation	3.0	A	57.0	1.0	0.8863598479656503
255.988131170976	3.0	feedback	n/a	n/a	n/a	n/a	n/a	n/a	n/a
259.48805208993144	2.5	scene	reward	violation	3.0	A	21.0	1.0	1.0424394940491766
261.98805208993144	3.0	feedback	n/a	n/a	n/a	n/a	n/a	n/a	n/a
265.4879747449886	2.5	scene	reward	nonviolation	3.0	A	79.0	1.0	0.768521839985624
267.9879747449886	3.0	feedback	n/a	n/a	n/a	n/a	n/a	n/a	n/a
271.4878955639433	2.5	scene	neutral	nonviolation	3.0	A	86.0	1.0	0.7765986530575901
273.9878955639433	3.0	feedback	n/a	n/a	n/a	n/a	n/a	n/a	n/a
277.487816310022	2.5	scene	reward	nonviolation	3.0	A	54.0	1.0	0.7436786869075149
279.987816310022	3.0	feedback	n/a	n/a	n/a	n/a	n/a	n/a	n/a
283.48773682792665	2.5	scene	reward	nonviolation	3.0	A	96.0	1.0	0.7557678950252011
285.98773682792665	3.0	feedback	n/a	n/a	n/a	n/a	n/a	n/a	n/a
289.48765868193004	2.5	scene	reward	violation	3.0	A	35.0	1.0	0.6968397489981726
291.98765868193004	3.0	feedback	n/a	n/a	n/a	n/a	n/a	n/a	n/a
295.4875790789956	2.5	scene	reward	violation	3.0	A	5.0	1.0	0.7269278039457276
297.9875790789956	3.0	feedback	n/a	n/a	n/a	n/a	n/a	n/a	n/a
301.4874999229796	2.5	scene	reward	violation	4.0	A	29.0	1.0	0.6559180909534916
303.9874999229796	3.0	feedback	n/a	n/a	n/a	n/a	n/a	n/a	n/a
307.4915985689732	2.5	scene	reward	violation	4.0	A	35.0	1.0	0.6209396059857681
309.9915985689732	3.0	feedback	n/a	n/a	n/a	n/a	n/a	n/a	n/a
313.48734193400014	2.5	scene	neutral	violation	4.0	A	11.0	1.0	0.8151587540050969
315.98734193400014	3.0	feedback	n/a	n/a	n/a	n/a	n/a	n/a	n/a
319.49158661998814	2.5	scene	reward	violation	4.0	A	22.0	1.0	1.0409155660308895
321.99158661998814	3.0	feedback	n/a	n/a	n/a	n/a	n/a	n/a	n/a
325.49110593996016	2.5	scene	reward	violation	4.0	A	5.0	1.0	1.030282570049167
327.99110593996016	3.0	feedback	n/a	n/a	n/a	n/a	n/a	n/a	n/a
331.49084193399176	2.5	scene	neutral	violation	4.0	A	2.0	1.0	0.736666181939654
333.99084193399176	3.0	feedback	n/a	n/a	n/a	n/a	n/a	n/a	n/a
337.49142003897583	2.5	scene	neutral	nonviolation	4.0	A	70.0	1.0	0.6520833789836615
339.99142003897583	3.0	feedback	n/a	n/a	n/a	n/a	n/a	n/a	n/a
343.49123136897106	2.5	scene	reward	nonviolation	4.0	A	88.0	1.0	0.6002952719572932
345.9912313689711	3.0	feedback	n/a	n/a	n/a	n/a	n/a	n/a	n/a
349.4900266759796	2.5	scene	neutral	nonviolation	4.0	A	60.0	1.0	0.716484330012463
351.9900266759796	3.0	feedback	n/a	n/a	n/a	n/a	n/a	n/a	n/a
355.49077824898995	2.5	scene	reward	nonviolation	4.0	A	79.0	1.0	0.7517262229230255
357.99077824898995	3.0	feedback	n/a	n/a	n/a	n/a	n/a	n/a	n/a
361.4905179069609	2.5	scene	reward	nonviolation	4.0	A	54.0	1.0	0.6439902189886197
363.9905179069609	3.0	feedback	n/a	n/a	n/a	n/a	n/a	n/a	n/a
367.48976952291565	2.5	scene	reward	violation	4.0	A	41.0	1.0	0.7967495050979778
369.98976952291565	3.0	feedback	n/a	n/a	n/a	n/a	n/a	n/a	n/a
373.48950864002114	2.5	scene	reward	violation	4.0	A	15.0	1.0	0.9370648969197646
375.98950864002114	3.0	feedback	n/a	n/a	n/a	n/a	n/a	n/a	n/a
379.48925592494203	2.5	scene	reward	violation	4.0	A	34.0	1.0	0.6832524640485644
381.98925592494203	3.0	feedback	n/a	n/a	n/a	n/a	n/a	n/a	n/a
385.4879993019858	2.5	scene	neutral	violation	4.0	A	13.0	1.0	1.0675385959912091
387.9879993019858	3.0	feedback	n/a	n/a	n/a	n/a	n/a	n/a	n/a
391.4887352889637	2.5	scene	reward	violation	4.0	A	21.0	1.0	0.7047731779748574
393.9887352889637	3.0	feedback	n/a	n/a	n/a	n/a	n/a	n/a	n/a
397.4885376639431	2.5	scene	neutral	nonviolation	4.0	A	49.0	1.0	1.3059722760226578
399.9885376639431	3.0	feedback	n/a	n/a	n/a	n/a	n/a	n/a	n/a
403.4872760089347	2.5	scene	reward	nonviolation	4.0	A	69.0	1.0	1.0182358640013265
405.9872760089347	3.0	feedback	n/a	n/a	n/a	n/a	n/a	n/a	n/a
409.48730288201483	2.5	scene	neutral	nonviolation	4.0	A	57.0	1.0	1.1472206119215116
411.98730288201483	3.0	feedback	n/a	n/a	n/a	n/a	n/a	n/a	n/a
415.48726676893415	2.5	scene	neutral	violation	4.0	A	47.0	1.0	0.7112444090889767
417.98726676893415	3.0	feedback	n/a	n/a	n/a	n/a	n/a	n/a	n/a
421.4872911159182	2.5	scene	neutral	violation	4.0	A	33.0	1.0	0.8052307571051642
423.9872911159182	3.0	feedback	n/a	n/a	n/a	n/a	n/a	n/a	n/a
427.4858445209684	2.5	scene	neutral	violation	4.0	A	46.0	1.0	0.6725403129821643
429.9858445209684	3.0	feedback	n/a	n/a	n/a	n/a	n/a	n/a	n/a
433.48576398391737	2.5	scene	neutral	nonviolation	4.0	A	89.0	1.0	0.5907557890750468
435.98576398391737	3.0	feedback	n/a	n/a	n/a	n/a	n/a	n/a	n/a
439.4862960429164	2.5	scene	neutral	nonviolation	4.0	A	80.0	1.0	0.4592199630569666
441.9862960429164	3.0	feedback	n/a	n/a	n/a	n/a	n/a	n/a	n/a
445.48560781194834	2.5	scene	reward	nonviolation	4.0	A	63.0	1.0	1.3729098109761253
447.98560781194834	3.0	feedback	n/a	n/a	n/a	n/a	n/a	n/a	n/a
451.4855298110051	2.5	scene	reward	nonviolation	4.0	A	82.0	1.0	0.7969862510217354
453.9855298110051	3.0	feedback	n/a	n/a	n/a	n/a	n/a	n/a	n/a
457.48545074998395	2.5	scene	reward	nonviolation	4.0	A	90.0	1.0	1.094095796928741
459.98545074998395	3.0	feedback	n/a	n/a	n/a	n/a	n/a	n/a	n/a
463.4853708569426	2.5	scene	neutral	nonviolation	4.0	A	91.0	1.0	0.6411461620591581
465.9853708569426	3.0	feedback	n/a	n/a	n/a	n/a	n/a	n/a	n/a
469.48529224400414	2.5	scene	reward	nonviolation	4.0	A	68.0	1.0	1.1691978300223127
471.98529224400414	3.0	feedback	n/a	n/a	n/a	n/a	n/a	n/a	n/a
475.4852125939215	2.5	scene	neutral	violation	4.0	A	19.0	1.0	0.8332866100827232
477.9852125939215	3.0	feedback	n/a	n/a	n/a	n/a	n/a	n/a	n/a
481.48513592197565	2.5	scene	neutral	violation	4.0	A	28.0	1.0	0.6193881679791957
483.98513592197565	3.0	feedback	n/a	n/a	n/a	n/a	n/a	n/a	n/a
487.4850563799264	2.5	scene	reward	violation	4.0	A	32.0	1.0	1.0844769250834358
489.9850563799264	3.0	feedback	n/a	n/a	n/a	n/a	n/a	n/a	n/a
493.48497613100335	2.5	scene	neutral	violation	4.0	A	1.0	0.0	0.8795592469396071
495.98497613100335	3.0	feedback	n/a	n/a	n/a	n/a	n/a	n/a	n/a
499.4848978469381	2.5	scene	reward	nonviolation	4.0	A	61.0	1.0	1.5316302930004897
501.9848978469381	3.0	feedback	n/a	n/a	n/a	n/a	n/a	n/a	n/a
505.4848240140127	2.5	scene	neutral	nonviolation	4.0	A	75.0	0.0	0.7067033569328487
507.9848240140127	3.0	feedback	n/a	n/a	n/a	n/a	n/a	n/a	n/a
511.48474274692126	2.5	scene	reward	violation	4.0	A	43.0	1.0	1.4886451590573415
513.9847427469213	3.0	feedback	n/a	n/a	n/a	n/a	n/a	n/a	n/a
517.4846633030102	2.5	scene	neutral	violation	4.0	A	24.0	1.0	0.9738675309345126
519.9846633030102	3.0	feedback	n/a	n/a	n/a	n/a	n/a	n/a	n/a
523.4845858759945	2.5	scene	reward	nonviolation	4.0	A	74.0	1.0	0.6710302269784734
525.9845858759945	3.0	feedback	n/a	n/a	n/a	n/a	n/a	n/a	n/a
529.4845105289714	2.5	scene	neutral	nonviolation	4.0	A	52.0	1.0	0.6140637940261513
531.9845105289714	3.0	feedback	n/a	n/a	n/a	n/a	n/a	n/a	n/a
535.4844293129863	2.5	scene	neutral	nonviolation	4.0	A	86.0	1.0	0.6301040309481323
537.9844293129863	3.0	feedback	n/a	n/a	n/a	n/a	n/a	n/a	n/a
541.4843496149407	2.5	scene	neutral	violation	4.0	A	30.0	1.0	0.7292685030261055
543.9843496149407	3.0	feedback	n/a	n/a	n/a	n/a	n/a	n/a	n/a
547.484268759028	2.5	scene	neutral	violation	4.0	A	37.0	1.0	0.5962672389578074
549.984268759028	3.0	feedback	n/a	n/a	n/a	n/a	n/a	n/a	n/a
553.4841925179353	2.5	scene	neutral	nonviolation	4.0	A	83.0	1.0	0.4883418680401519
555.9841925179353	3.0	feedback	n/a	n/a	n/a	n/a	n/a	n/a	n/a
559.4841141389916	2.5	scene	reward	violation	4.0	A	6.0	1.0	0.6784238619729877
561.9841141389916	3.0	feedback	n/a	n/a	n/a	n/a	n/a	n/a	n/a
565.4840357969515	2.5	scene	reward	nonviolation	4.0	A	53.0	1.0	0.8454979050438851
567.9840357969515	3.0	feedback	n/a	n/a	n/a	n/a	n/a	n/a	n/a
571.4839579539838	2.5	scene	neutral	nonviolation	4.0	A	65.0	1.0	0.6385796560207382
573.9839579539838	3.0	feedback	n/a	n/a	n/a	n/a	n/a	n/a	n/a
577.4838770609349	2.5	scene	reward	nonviolation	4.0	A	96.0	1.0	0.799722615047358
579.9838770609349	3.0	feedback	n/a	n/a	n/a	n/a	n/a	n/a	n/a
583.4837984109763	2.5	scene	reward	violation	4.0	A	9.0	1.0	0.5917466450482607
585.9837984109763	3.0	feedback	n/a	n/a	n/a	n/a	n/a	n/a	n/a
