onset	duration	trial_type	condition	response_accuracy	response_time
13.505970779107885	2.5	B	nonviolation	1	1.5185871128924189
16.50432057515718	2.5	A	violation	1	0.68625309295021
19.504283868009228	2.5	B	violation	0	1.0752919099759308
22.504244371084493	2.5	B	violation	1	0.9763280430343002
25.50420455611311	2.5	A	violation	1	0.8853723120409995
28.504161784192554	2.5	B	violation	1	0.9704148569144307
31.504118844168264	2.5	A	nonviolation	1	0.8694628919474781
34.50408738711849	2.5	B	violation	1	1.0804903630632907
37.504042132990435	2.5	A	nonviolation	1	0.9245512702036648
40.50400627614	2.5	A	violation	1	0.6115714418701828
43.503967581084005	2.5	B	violation	1	1.1976166570093485
46.50393320713192	2.5	B	nonviolation	0	1.1276489130686969
49.50388704403304	2.5	B	nonviolation	0	1.0566931350622326
52.5038443619851	2.5	A	nonviolation	1	0.7857369082048535
55.503809178015224	2.5	B	nonviolation	0	1.1607716851867735
58.503765603993095	2.5	A	nonviolation	1	1.4098157992120832
61.5037368691992	2.5	A	nonviolation	1	0.8958497038111091
64.50369097897783	2.5	A	violation	1	0.7638880421873182
67.50364669109696	2.5	A	violation	1	0.6268632391002029
70.50360651197843	2.5	A	violation	1	0.616970525123179
73.50357122113928	2.5	A	violation	1	0.6110139528755099
76.50355008803308	2.5	B	nonviolation	0	1.1920319751370698
79.50348688405937	2.5	B	nonviolation	0	0.934098791098222
82.50345230009405	2.5	A	nonviolation	1	0.5551297150086612
85.50341072515585	2.5	A	nonviolation	1	0.6301727639511228
88.50337599311024	2.5	B	nonviolation	0	1.310213966993615
91.50334246410057	2.5	A	violation	1	0.5092370370402932
94.50330329104328	2.5	B	nonviolation	1	0.7552919890731573
97.503257824108	2.5	A	nonviolation	1	0.5863347828853875
100.50320943002588	2.5	B	violation	0	1.130378620000556
103.5031675400678	2.5	A	violation	1	0.6694146520458162
106.50312750204466	2.5	B	violation	0	1.0494617300573736
109.50308971712366	2.5	A	violation	1	0.5355007159523666
112.5030630370602	2.5	A	violation	1	0.7105204879771918
115.50304454308935	2.5	B	violation	1	0.7954801830928773
118.50296704913491	2.5	B	nonviolation	0	0.7346250789705664
121.50292873801665	2.5	B	violation	0	1.576656315010041
124.50288963713685	2.5	A	violation	1	0.5476968770381063
127.50285160704516	2.5	B	violation	0	0.7897374201565981
130.50280721811578	2.5	B	violation	0	0.8887802599929273
133.50277599901892	2.5	A	nonviolation	1	0.6578149381093681
136.50274484301917	2.5	B	nonviolation	0	0.8198429530020803
139.5026914870832	2.5	B	nonviolation	0	1.9749031299725173
142.5026586521417	2.5	B	violation	0	0.9749391479417682
145.5026192232035	2.5	A	nonviolation	1	0.72996895480901
148.50257774605416	2.5	A	nonviolation	1	0.6799403079785407
151.5025300220586	2.5	B	nonviolation	0	1.2360640100669116
154.50249777804132	2.5	A	nonviolation	1	0.6390986209735274
157.50244520604608	2.5	B	nonviolation	0	0.7821476820390671
160.50241535902026	2.5	B	nonviolation	0	0.9620951879769564
163.5023767789826	2.5	B	nonviolation	0	0.6872225331608206
166.50233085709624	2.5	A	violation	1	0.4711791079025716
169.5022907180246	2.5	A	nonviolation	1	0.6832257721107453
172.50224603898826	2.5	B	violation	0	1.1473489149939269
175.50220935419205	2.5	B	violation	0	0.7323235939256847
178.50216821604408	2.5	A	violation	1	0.6973549129907042
181.5021366160363	2.5	B	nonviolation	1	0.8474590710829943
184.50209004897624	2.5	B	nonviolation	1	0.6005045222118497
187.5020526810549	2.5	A	violation	1	0.5365493521094322
190.50201273499988	2.5	A	violation	1	0.8545835199765861
193.50197290000503	2.5	B	violation	0	0.6516207680106163
196.50193469203083	2.5	B	nonviolation	0	1.2736684561241418
199.50188598199745	2.5	A	nonviolation	1	0.5637154800351709
202.5018584029749	2.5	B	nonviolation	1	0.8677421880420297
205.5018076151609	2.5	B	nonviolation	0	0.695796743966639
208.5017667179927	2.5	A	nonviolation	1	0.6558327260427177
211.5017337850295	2.5	B	nonviolation	0	0.7418681490235031
214.50168212316933	2.5	B	nonviolation	1	0.6618411620147526
217.5016400599852	2.5	B	violation	1	0.7089623589999974
220.50160711398345	2.5	A	nonviolation	1	0.4929921310395002
223.50158791802826	2.5	A	nonviolation	1	0.5800136991310865
226.5015201061033	2.5	A	violation	1	0.6130808820016682
229.50148433609863	2.5	B	violation	1	1.0941153829917312
232.50143921817653	2.5	A	violation	1	0.5021610669791698
235.50140703399663	2.5	B	violation	0	0.8361969820689409
238.50137055804956	2.5	B	violation	1	0.7022276320494711
241.50131776509807	2.5	A	nonviolation	1	0.7433004279155284
244.5012792760972	2.5	A	nonviolation	1	0.5293245669454336
247.50124181201684	2.5	A	nonviolation	1	0.4623606081586331
250.50120059913024	2.5	A	nonviolation	1	0.6044045099988579
253.50116255600003	2.5	A	violation	1	0.5544418941717595
256.50111938710324	2.5	A	nonviolation	1	0.545483544934541
259.50107558211306	2.5	B	violation	0	0.8405271579977125
262.5010385771748	2.5	B	violation	1	1.0705700227990746
265.5009946541395	2.5	B	nonviolation	n/a	n/a
268.50094965612516	2.5	A	violation	1	1.014657489024103
271.5009230421856	2.5	A	violation	1	0.5326838518958539
274.50088524702005	2.5	B	nonviolation	0	0.5206496100872755
277.5008298701141	2.5	A	nonviolation	1	0.4987786998972297
280.5008031660691	2.5	A	nonviolation	1	0.6488037530798465
283.50076360604726	2.5	B	violation	0	0.7337751779705286
286.4840404891874	2.5	A	violation	1	0.709567756857723
289.48399810516275	2.5	A	violation	1	0.4946105808485299
292.483959202189	2.5	B	violation	1	0.6575626737903804
295.48391779116355	2.5	B	violation	1	0.6406910780351609
298.48387384018866	2.5	A	violation	1	0.6147376918233931
301.4838341930881	2.5	A	nonviolation	1	0.4637794790323824
304.4837963480968	2.5	B	violation	0	0.5808146409690379
307.4837569491938	2.5	B	violation	1	0.6318514109589161
310.48372098919936	2.5	B	nonviolation	0	0.5348883229307829
313.4836745921057	2.5	A	violation	1	0.7199404800776392
316.48367118113674	2.5	B	violation	1	0.4799359820317477
319.48359407507814	2.5	B	violation	1	1.9410220240242781
322.48355423798785	2.5	B	nonviolation	1	0.7360584351699799
325.4835126029793	2.5	A	violation	1	0.5341036121826619
328.4834697211627	2.5	B	nonviolation	0	0.7341368109919131
331.4834429230541	2.5	A	nonviolation	1	0.5611482369713485
334.48339060903527	2.5	B	nonviolation	1	0.5662179631181061
337.4833485390991	2.5	B	violation	0	0.6572921168990433
340.4833146589808	2.5	B	violation	1	0.7412993640173227
343.48327054316184	2.5	A	violation	1	0.96034512296319
346.4832267200109	2.5	A	nonviolation	1	0.5263913781382143
349.48319360497413	2.5	A	nonviolation	1	1.0224223951809108
352.4831478071865	2.5	B	nonviolation	0	0.7684696088545024
355.48310615518125	2.5	A	nonviolation	1	0.5675112497992814
358.4830765761435	2.5	A	nonviolation	1	0.4955403269268572
361.4830304749776	2.5	B	nonviolation	1	1.1485880110412836
364.4829951061402	2.5	A	violation	1	0.44362055300734937
367.4829562290106	2.5	A	nonviolation	1	0.5786670171655715
370.48289861902606	2.5	A	violation	1	0.5587187290657312
373.4828746540006	2.5	A	violation	1	0.5717416021507233
376.4828323230613	2.5	A	nonviolation	1	0.609785710927099
379.48278187401587	2.5	B	violation	1	0.6928417931776494
382.482736896025	2.5	B	nonviolation	0	2.1028818520717323
385.4827091482002	2.5	B	violation	1	0.7788966579828411
388.48266642610537	2.5	A	nonviolation	1	0.5699565170798451
391.4826366940979	2.5	B	nonviolation	1	1.1849880090449003
394.4825784601271	2.5	A	nonviolation	1	0.6720467628911138
397.4825478561688	2.5	A	violation	1	0.5080768349580467
400.4824983521831	2.5	B	nonviolation	0	0.8641299658920616
403.4824678271543	2.5	B	nonviolation	0	0.8131524848286062
406.48242348409264	2.5	B	nonviolation	0	1.462204921990633
409.4823741069995	2.5	A	violation	1	0.5631686612032354
412.48233338305727	2.5	B	violation	1	0.5272906720638275
415.4822901340667	2.5	A	nonviolation	1	0.7723065079189837
418.4822612141725	2.5	A	violation	1	0.5333661299664527
421.4822128801608	2.5	A	violation	1	0.6964167619589716
424.48216952104116	2.5	A	violation	1	0.7834510509856045
427.48213271400886	2.5	A	violation	1	0.7795022591017187
430.48208965803497	2.5	B	violation	0	1.8015398820862172
433.48205203609535	2.5	B	nonviolation	0	0.9835798169951886
436.48201872198837	2.5	A	nonviolation	1	0.4146135621704161
439.4819763710257	2.5	B	violation	0	1.0176492580212653
442.48192916507827	2.5	B	violation	0	1.603697340935469
445.48189286910934	2.5	A	nonviolation	1	0.5817346489056945
448.4818439041264	2.5	B	nonviolation	1	0.71870401292108
451.48180291103205	2.5	A	violation	1	0.9488251621369272
454.48176386812696	2.5	B	nonviolation	1	1.0048654358834028
457.48172496212646	2.5	B	nonviolation	0	0.7429227160755545
460.4816899120342	2.5	A	nonviolation	1	0.6289377210196108
463.4816407561302	2.5	A	violation	1	0.4969894899986684
466.48159881611366	2.5	B	nonviolation	1	0.905036827083677
469.4815622740425	2.5	B	nonviolation	1	1.1370755699463189
472.4815270781983	2.5	B	violation	1	0.7611072708386928
475.4814872459974	2.5	A	violation	1	0.8321437311824411
478.48144367616624	2.5	A	nonviolation	1	0.7661900168750435
481.48139433702454	2.5	A	violation	n/a	n/a
484.48135025217204	2.5	A	nonviolation	1	0.7231662629637867
487.48131684819236	2.5	B	nonviolation	0	0.942317668814212
490.4812742311042	2.5	A	nonviolation	1	0.5703751959372312
493.48122892715037	2.5	B	nonviolation	0	0.6394071609247476
496.481185631128	2.5	B	nonviolation	0	1.1554534388706088
499.48114879801875	2.5	B	violation	1	0.6544942499604076
502.4811049262062	2.5	A	violation	1	0.598532838979736
505.4810726870783	2.5	B	violation	1	0.5554408319294453
508.4810325889848	2.5	B	violation	0	0.611609177198261
511.48098937305616	2.5	A	nonviolation	1	0.8526518980506808
514.480956110172	2.5	A	nonviolation	1	0.5506784098688513
517.4809020610992	2.5	B	nonviolation	1	0.8347400180064142
520.4808592791669	2.5	A	nonviolation	1	0.6137397878337651
523.4808355341665	2.5	A	violation	1	0.7858006248716265
526.4807776040399	2.5	B	nonviolation	1	0.9188626860268414
529.4807462601457	2.5	B	violation	1	0.9238906640093774
532.4807038961444	2.5	B	violation	0	0.6389403138309717
535.4806689030956	2.5	A	nonviolation	1	0.5249734339304268
538.4806317950133	2.5	B	violation	0	0.9260073141194879
541.480578339193	2.5	A	nonviolation	1	0.5690612609032542
544.4805335060228	2.5	A	violation	1	0.5291062931064516
547.4804949390236	2.5	B	violation	0	0.8171497860457748
550.4804535300937	2.5	A	violation	1	0.5591806708835065
553.4804109230172	2.5	B	violation	0	0.8482337570749223
556.4803696451709	2.5	A	violation	1	0.5072734579443932
559.4803343340755	2.5	A	nonviolation	1	0.5813076479826123
562.4802943931427	2.5	B	violation	0	1.1203493690118194
565.4802472849843	2.5	B	nonviolation	1	0.8233946862164885
568.480210222071	2.5	B	violation	0	0.6834312970750034
571.4801687381696	2.5	A	nonviolation	1	0.5494811700191349
574.4801244640257	2.5	A	violation	1	0.5775193180888891
577.4800855261274	2.5	A	violation	1	0.6385561809875071
580.4800552600062	2.5	B	violation	1	0.5395872821100056
583.4800038291141	2.5	A	violation	1	0.873642060905695
586.4799731371459	2.5	B	nonviolation	0	0.9526752759702504
