onset	duration	trial_type	condition	repetition	pairmate	pairID	category	subcategory	response_accuracy	response_time
13.505001440877097	1	postlearning	violation	7	B	22	scene	outdoor	1	0.5862097551580518
16.504956546006724	1	postlearning	nonviolation	7	B	86	scene	indoor	1	0.5092580069322139
19.504928938811645	1	postlearning	nonviolation	7	B	50	scene	indoor	1	0.5402847609948367
22.504877808969468	1	postlearning	nonviolation	7	B	51	scene	outdoor	1	0.7263401069212705
25.504844526993107	1	postlearning	nonviolation	7	B	53	scene	indoor	1	0.5033668729010969
28.50480279303156	1	postlearning	nonviolation	7	B	60	scene	outdoor	1	0.4774128638673574
31.504766468890015	1	postlearning	violation	7	B	23	scene	outdoor	1	0.5224548620171845
34.504721202887595	1	postlearning	nonviolation	7	B	85	scene	outdoor	1	0.6884892790112644
37.50468286382966	1	postlearning	violation	7	B	13	scene	indoor	1	0.5245369691401721
40.50463996594772	1	postlearning	nonviolation	7	B	94	scene	outdoor	1	0.4915812420658767
43.50460781599396	1	postlearning	nonviolation	7	B	96	scene	indoor	1	0.597606707829982
46.50456365500577	1	postlearning	violation	7	B	46	scene	indoor	1	0.6036545298993587
49.504535415908315	1	postlearning	violation	7	B	43	scene	outdoor	1	0.5576857249252498
52.50448326999322	1	postlearning	nonviolation	7	B	89	scene	indoor	1	0.6247440138831735
55.50444309483282	1	postlearning	violation	7	B	44	scene	indoor	1	0.6027736910618842
58.50441473792307	1	postlearning	nonviolation	7	B	54	scene	outdoor	1	0.5878070890903473
61.50436580297537	1	postlearning	nonviolation	7	B	90	scene	outdoor	1	0.6577941318973899
64.50432509602979	1	postlearning	nonviolation	7	B	62	scene	indoor	1	0.5618970999494195
67.50428562890738	1	postlearning	nonviolation	7	B	55	scene	outdoor	1	0.5549304559826851
70.50424273894168	1	postlearning	violation	7	B	24	scene	indoor	1	0.5119829268660396
73.50420302688144	1	postlearning	nonviolation	7	B	69	scene	outdoor	1	0.5250195569824427
76.50416486593895	1	postlearning	nonviolation	7	B	88	scene	outdoor	1	0.6830568870063871
79.50412558484824	1	postlearning	violation	7	B	6	scene	outdoor	1	0.5750981960445642
82.50408545695245	1	postlearning	nonviolation	7	B	68	scene	outdoor	1	0.5431344378739595
85.50405466882512	1	postlearning	violation	7	B	39	scene	indoor	1	0.5481751051265746
88.50401217187756	1	postlearning	nonviolation	7	B	83	scene	indoor	0	0.6812134049832821
91.50396904186346	1	postlearning	nonviolation	7	B	71	scene	indoor	1	0.527261057170108
94.50392564502545	1	postlearning	violation	7	B	8	scene	indoor	1	0.5613031568937004
97.50388460000977	1	postlearning	violation	7	B	34	scene	indoor	1	0.6453412920236588
100.50386189995335	1	postlearning	violation	7	B	12	scene	outdoor	1	0.7992980480194092
103.50380544597284	1	postlearning	violation	7	B	38	scene	indoor	1	0.6542984200641513
106.50376454787329	1	postlearning	violation	7	B	21	scene	outdoor	1	0.5554586600046605
109.50371693097986	1	postlearning	violation	7	B	47	scene	outdoor	1	0.6025149738416076
112.50369317596778	1	postlearning	violation	7	B	1	scene	indoor	1	0.5425361189991236
115.50364433089271	1	postlearning	nonviolation	7	B	67	scene	indoor	0	0.5255750811193138
118.50360386981629	1	postlearning	violation	7	B	19	scene	outdoor	1	0.5456256070174277
121.50356383901091	1	postlearning	nonviolation	7	B	93	scene	indoor	1	0.6156677328981459
124.5035302299075	1	postlearning	nonviolation	7	B	59	scene	outdoor	1	0.6536962580867112
127.5034836679697	1	postlearning	nonviolation	7	B	63	scene	indoor	1	0.5337482569739223
130.50345717882738	1	postlearning	violation	7	B	45	scene	outdoor	1	0.6007702259812504
133.50341349700466	1	postlearning	violation	7	B	4	scene	outdoor	1	0.6598152290098369
136.50335835595615	1	postlearning	violation	7	B	10	scene	indoor	1	0.6668186029419303
139.50332871102728	1	postlearning	violation	7	B	17	scene	indoor	1	0.6279011250007898
142.5032813148573	1	postlearning	nonviolation	7	B	87	scene	indoor	1	0.5619442400056869
145.50325335981324	1	postlearning	nonviolation	7	B	49	scene	outdoor	1	0.5609761180821806
148.50320367189124	1	postlearning	nonviolation	7	B	74	scene	outdoor	1	0.6040273490361869
151.50315763684918	1	postlearning	violation	7	B	14	scene	outdoor	1	0.77807448618114
154.5031200798694	1	postlearning	nonviolation	7	B	52	scene	indoor	1	0.6949950670823455
157.50309514999392	1	postlearning	nonviolation	7	B	79	scene	indoor	1	0.5421400880441071
160.50303878099658	1	postlearning	violation	7	B	27	scene	outdoor	1	0.7491962120402604
163.50300126685758	1	postlearning	violation	7	B	2	scene	outdoor	1	0.5182332971598953
166.50295972195454	1	postlearning	violation	7	B	30	scene	indoor	1	0.674270702060312
169.50290980492719	1	postlearning	nonviolation	7	B	82	scene	indoor	1	0.6823204809334129
172.5028774279635	1	postlearning	nonviolation	7	B	80	scene	outdoor	1	0.5973555480595678
175.5028370388318	1	postlearning	violation	7	B	18	scene	indoor	1	0.6033973810262978
178.50282094092108	1	postlearning	nonviolation	7	B	91	scene	indoor	1	0.572411899920553
181.5027578228619	1	postlearning	nonviolation	7	B	56	scene	indoor	1	0.6194767421111465
184.502718097996	1	postlearning	violation	7	B	15	scene	indoor	1	0.5445167948491871
187.50267719081603	1	postlearning	nonviolation	7	B	92	scene	outdoor	1	0.6295545101165771
190.5026359369513	1	postlearning	nonviolation	7	B	95	scene	outdoor	1	0.5846002059988678
193.50260390201584	1	postlearning	violation	7	B	37	scene	indoor	1	0.617629068903625
196.50255384296182	1	postlearning	nonviolation	7	B	57	scene	indoor	1	0.6486848159693182
199.50251195090823	1	postlearning	nonviolation	7	B	61	scene	outdoor	1	0.5727275479584932
202.50247431080788	1	postlearning	violation	7	B	11	scene	indoor	1	0.5237641471903771
205.5024335240014	1	postlearning	violation	7	B	36	scene	outdoor	1	0.4838045928627253
208.5023936608341	1	postlearning	violation	7	B	20	scene	indoor	1	0.5618466660380363
211.5023512148764	1	postlearning	violation	7	B	29	scene	indoor	1	0.6058941769879311
214.50231104600243	1	postlearning	violation	7	B	42	scene	indoor	1	0.662934040883556
217.5022789009381	1	postlearning	violation	7	B	28	scene	indoor	1	0.6149638849310577
220.50224263197742	1	postlearning	nonviolation	7	B	70	scene	outdoor	1	0.8140021238941699
223.5022184709087	1	postlearning	violation	7	B	48	scene	indoor	1	0.6280247869435698
226.50214913999665	1	postlearning	nonviolation	7	B	78	scene	indoor	1	0.5570936349686235
229.50210445490663	1	postlearning	nonviolation	7	B	75	scene	outdoor	1	0.5151360409799963
232.50206827395598	1	postlearning	nonviolation	7	B	58	scene	outdoor	1	0.6241415990516543
235.50203330395743	1	postlearning	violation	7	B	16	scene	outdoor	1	0.7682192588690668
238.50198871502656	1	postlearning	nonviolation	7	B	64	scene	indoor	1	0.5772589067928493
241.5019477638416	1	postlearning	violation	7	B	40	scene	outdoor	1	0.5912986230105162
244.5019064578228	1	postlearning	violation	7	B	32	scene	outdoor	1	0.5553355200681835
247.50186612689868	1	postlearning	violation	7	B	35	scene	outdoor	1	0.4893780029378832
250.50182537897493	1	postlearning	nonviolation	7	B	76	scene	indoor	1	0.5963778130244464
253.50178583501844	1	postlearning	nonviolation	7	B	65	scene	indoor	1	0.5244545978493989
256.50174218090245	1	postlearning	nonviolation	7	B	77	scene	indoor	1	0.5465028339531273
259.50170264602644	1	postlearning	violation	7	B	41	scene	outdoor	1	0.7275445898994803
262.5016615628265	1	postlearning	nonviolation	7	B	73	scene	outdoor	1	0.5215874200221151
265.50162636698224	1	postlearning	violation	7	B	3	scene	indoor	1	0.7026188119780272
268.50158402090887	1	postlearning	nonviolation	7	B	66	scene	outdoor	1	0.5716622590553015
271.5015409279149	1	postlearning	violation	7	B	5	scene	outdoor	1	0.5637140721082687
274.50150254601607	1	postlearning	nonviolation	7	B	81	scene	outdoor	1	0.4687343698460609
277.50146042299457	1	postlearning	violation	7	B	26	scene	outdoor	1	0.5167831918224692
280.50141795887606	1	postlearning	violation	7	B	9	scene	outdoor	1	0.4928318811580539
283.50138060981413	1	postlearning	violation	7	B	7	scene	indoor	1	0.7248677602037787
286.50133847189136	1	postlearning	violation	7	B	25	scene	indoor	1	0.6019132719375193
289.5013023710344	1	postlearning	violation	7	B	33	scene	outdoor	1	0.674947990803048
292.50126659101807	1	postlearning	violation	7	B	31	scene	outdoor	1	0.5559868768323213
295.4845376238227	1	postlearning	nonviolation	7	B	84	scene	outdoor	1	0.6147075612097979
298.484494979959	1	postlearning	nonviolation	7	B	72	scene	indoor	1	0.6387561319861561
