onset	duration	trial_type	condition	repetition	pairmate	pairID	category	subcategory	response_accuracy	response_time
13.506212340900676	1	prelearning	violation	1	A	23	scene	outdoor	1	0.8347340410109609
16.50617517181672	1	prelearning	nonviolation	1	A	72	scene	indoor	1	0.6057735090143979
19.506132727954537	1	prelearning	nonviolation	1	B	65	scene	indoor	1	0.5718069639988244
22.50609559984877	1	prelearning	nonviolation	1	A	70	scene	outdoor	1	0.4268558530602604
25.506066258996725	1	prelearning	violation	1	B	19	scene	indoor	1	0.5459042838774621
28.506016097962856	1	prelearning	violation	1	A	21	scene	outdoor	1	0.7278466729912907
31.505976903950803	1	prelearning	violation	1	A	19	scene	indoor	1	0.6209738720208406
34.505946493009105	1	prelearning	nonviolation	1	B	66	scene	outdoor	1	0.607003757962957
37.50589623185806	1	prelearning	violation	1	B	24	scene	outdoor	0	0.7800665979739279
40.5058576669544	1	prelearning	nonviolation	1	B	68	scene	indoor	1	0.5340909708756953
43.50581790995785	1	prelearning	violation	1	A	20	scene	indoor	1	0.5521298509556801
46.50577795994468	1	prelearning	nonviolation	1	A	68	scene	indoor	1	0.584174248855561
49.505749357864254	1	prelearning	nonviolation	1	A	65	scene	outdoor	1	0.5592021639458835
52.50570071092807	1	prelearning	nonviolation	1	B	72	scene	outdoor	1	0.7042538649402559
55.50565879582427	1	prelearning	nonviolation	1	B	71	scene	outdoor	1	0.5462710750289261
58.50561986793764	1	prelearning	violation	1	A	22	scene	indoor	1	0.5213377289474009
61.50557800498791	1	prelearning	violation	1	B	17	scene	indoor	1	0.4893734899815172
64.50554172392003	1	prelearning	violation	1	A	24	scene	outdoor	1	0.8474200579803437
67.50549961579964	1	prelearning	violation	1	A	18	scene	indoor	1	0.7884525221306831
70.50545895379038	1	prelearning	violation	1	B	21	scene	outdoor	1	0.8145075780339539
73.50541994790547	1	prelearning	nonviolation	1	A	69	scene	indoor	1	0.7115324879996479
76.50538572180085	1	prelearning	nonviolation	1	A	67	scene	indoor	1	0.4775707512162626
79.50534198479727	1	prelearning	violation	1	B	18	scene	outdoor	1	0.5176012541633099
82.50530302501285	1	prelearning	nonviolation	1	B	70	scene	indoor	1	0.5786529500037432
85.50526016997173	1	prelearning	violation	1	B	20	scene	indoor	1	0.6177013670094311
88.50522128981537	1	prelearning	nonviolation	1	A	71	scene	outdoor	1	0.5157362842001021
91.50518071791157	1	prelearning	violation	1	B	22	scene	outdoor	1	0.4927708199247718
94.50514164497145	1	prelearning	nonviolation	1	B	69	scene	indoor	1	0.5588182490319014
97.50510084000416	1	prelearning	nonviolation	1	A	66	scene	outdoor	0	0.5568563649430871
100.50505836494268	1	prelearning	violation	1	B	23	scene	indoor	1	0.5489161410368979
103.50501959095708	1	prelearning	nonviolation	1	B	67	scene	outdoor	1	0.5849386530462652
106.50497878086752	1	prelearning	violation	1	A	17	scene	outdoor	1	0.7689841741230339
109.50493741896936	1	learning	nonviolation	2	A	65	scene	outdoor	1	0.5440200648736209
112.50490259891376	1	learning	nonviolation	2	B	65	scene	indoor	1	0.4810517739970237
115.50486009987073	1	learning	violation	2	A	17	scene	outdoor	1	0.5900967800989747
118.50481497682631	1	learning	violation	2	B	17	scene	indoor	1	0.596141321118921
121.504776900867	1	learning	nonviolation	2	A	66	scene	outdoor	1	0.6611802710685879
124.50473885796964	1	learning	nonviolation	2	B	66	scene	outdoor	1	0.4821589379571378
127.50470602279528	1	learning	violation	2	A	18	scene	indoor	1	0.5862570011522621
130.50466241082177	1	learning	violation	2	B	18	scene	outdoor	1	0.6082984860986471
133.50462573184632	1	learning	violation	2	A	19	scene	indoor	1	0.4912501000799239
136.50457496382296	1	learning	violation	2	B	19	scene	indoor	1	0.5713911291677505
139.50454302085564	1	learning	nonviolation	2	A	67	scene	indoor	1	0.5984148699790239
142.50449711084366	1	learning	nonviolation	2	B	67	scene	outdoor	1	0.4884616299532354
145.5044517298229	1	learning	violation	2	A	20	scene	indoor	1	0.93252024310641
148.5044158648234	1	learning	violation	2	B	20	scene	indoor	1	0.5824697790667415
151.5043713299092	1	learning	violation	2	A	21	scene	outdoor	1	0.6565983190666884
154.50433262297884	1	learning	violation	2	B	21	scene	outdoor	1	0.6646308498457074
157.50429378799163	1	learning	violation	2	A	22	scene	indoor	1	0.4826189398299903
160.5042484169826	1	learning	violation	2	B	22	scene	outdoor	1	0.6807118079159409
163.50420855195262	1	learning	nonviolation	3	A	66	scene	outdoor	1	0.6507592350244522
166.5041686058976	1	learning	nonviolation	3	B	66	scene	outdoor	1	0.5778001800645143
169.50412646098994	1	learning	nonviolation	3	A	65	scene	outdoor	1	0.6348442889284343
172.50408936780877	1	learning	nonviolation	3	B	65	scene	indoor	1	0.4839106351137161
175.50404687598348	1	learning	nonviolation	2	A	68	scene	indoor	1	0.5179186419118196
178.5040113287978	1	learning	nonviolation	2	B	68	scene	indoor	1	0.5409528710879385
181.50395945901985	1	learning	violation	3	A	17	scene	outdoor	1	0.4960097728762776
184.50392749090682	1	learning	violation	3	B	17	scene	indoor	1	0.4860371500253677
187.50388305191882	1	learning	violation	3	A	18	scene	indoor	1	0.5300880360882729
190.50384385883808	1	learning	violation	3	B	18	scene	outdoor	1	0.456126619130373
193.5038053919561	1	learning	violation	3	A	22	scene	indoor	1	0.4881631499156356
196.5037666319404	1	learning	violation	3	B	22	scene	outdoor	1	0.4942074350547046
199.50372002483346	1	learning	nonviolation	4	A	66	scene	outdoor	1	0.5051725429948419
202.5036798468791	1	learning	nonviolation	4	B	66	scene	outdoor	1	0.5722891169134527
205.50363901397213	1	learning	violation	4	A	17	scene	outdoor	1	0.5623283348977566
208.5035983098205	1	learning	violation	4	B	17	scene	indoor	1	0.5313722451683134
211.5035598760005	1	learning	violation	4	A	22	scene	indoor	1	0.8384090717881918
214.50351670500825	1	learning	violation	4	B	22	scene	outdoor	1	0.5264492318965495
217.50347682996656	1	learning	violation	2	A	23	scene	outdoor	1	0.5334114318247885
220.50343805691227	1	learning	violation	2	B	23	scene	indoor	1	0.6305363450665027
223.50339213688858	1	learning	violation	4	A	18	scene	indoor	1	0.510579006979242
226.50335249700584	1	learning	violation	4	B	18	scene	outdoor	1	0.4666233018506318
229.50331708579327	1	learning	violation	3	A	19	scene	indoor	1	0.7866560290567577
232.50327099300918	1	learning	violation	3	B	19	scene	indoor	1	0.6496989729348571
235.48655700683597	1	learning	nonviolation	3	A	67	scene	indoor	1	0.5064161920454353
238.48656079894863	1	learning	nonviolation	3	B	67	scene	outdoor	1	0.6274223870132118
241.4864776169416	1	learning	nonviolation	2	A	69	scene	indoor	1	0.7614917638711631
244.50310734985402	1	learning	nonviolation	2	B	69	scene	indoor	1	0.6718657910823822
247.50308119086552	1	learning	nonviolation	4	A	65	scene	outdoor	1	0.7468951430637389
250.50302888196893	1	learning	nonviolation	4	B	65	scene	indoor	1	0.5959505839273334
253.4863112978637	1	learning	nonviolation	3	A	68	scene	indoor	1	0.6556689911521971
256.4862679520156	1	learning	nonviolation	3	B	68	scene	indoor	1	0.5237092007882893
259.486229008995	1	restudy	nonviolation	5	B	66	scene	outdoor	1	0.8157511199824512
262.4861874678172	1	learning	violation	2	A	24	scene	outdoor	1	0.6877924969885498
265.4861448288429	1	learning	violation	2	B	24	scene	outdoor	1	0.7478320950176567
268.48610495589674	1	learning	violation	3	A	20	scene	indoor	1	0.5517953319940716
271.4860727568157	1	learning	violation	3	B	20	scene	indoor	1	0.6479076580144465
274.48602908989415	1	learning	violation	3	A	21	scene	outdoor	1	0.5999508630484343
277.48598777083686	1	learning	violation	3	B	21	scene	outdoor	1	0.8449879551772028
280.48594825691544	1	restudy	nonviolation	6	B	66	scene	outdoor	1	0.504030860029161
283.4859079909511	1	learning	violation	3	A	24	scene	outdoor	1	0.5590724539943039
286.48586913594045	1	learning	violation	3	B	24	scene	outdoor	1	0.7881101060193032
289.4858255709987	1	violation	violation	5	A	22	scene	indoor	1	0.6591574989724904
292.48578182887286	1	violation	violation	1	X	22	face	male	1	1.1021968370769173
295.48574233497493	1	learning	nonviolation	4	A	67	scene	indoor	1	0.5792447368148714
298.4857012368739	1	learning	nonviolation	4	B	67	scene	outdoor	1	0.5642792829312384
301.48566105589265	1	learning	nonviolation	2	A	70	scene	outdoor	1	0.5923225989099592
304.48562408797443	1	learning	nonviolation	2	B	70	scene	indoor	1	0.7933589068707079
307.48557715490466	1	violation	violation	5	A	17	scene	outdoor	1	0.7263990119099617
310.4855385378469	1	violation	violation	1	X	17	face	female	1	0.6424450289923698
313.48549848492263	1	learning	violation	4	A	20	scene	indoor	1	0.5284766920376569
316.48545934678987	1	learning	violation	4	B	20	scene	indoor	1	0.5035283761098981
319.48541462188587	1	learning	nonviolation	3	A	70	scene	outdoor	1	0.5175676490180194
322.48537439596834	1	learning	nonviolation	3	B	70	scene	indoor	1	0.5885391079355031
325.48533465899527	1	learning	violation	4	A	19	scene	indoor	1	0.7246535299345851
328.4852945927996	1	learning	violation	4	B	19	scene	indoor	1	0.6467010150663555
331.4852514418308	1	learning	nonviolation	3	A	69	scene	indoor	1	0.976738478988409
334.48521042987704	1	learning	nonviolation	3	B	69	scene	indoor	1	0.5737767799291761
337.48517272993917	1	learning	violation	3	A	23	scene	outdoor	1	0.580817508045584
340.48512938595377	1	learning	violation	3	B	23	scene	indoor	1	0.524861920857802
343.4850893879775	1	violation	violation	5	A	18	scene	indoor	1	0.4949126348365098
346.4850484579802	1	violation	violation	1	X	18	face	male	0	0.7069406609516591
349.48500681086443	1	restudy	violation	5	B	17	scene	indoor	1	0.5569857461377978
352.4849659958855	1	learning	nonviolation	4	A	68	scene	indoor	1	0.601020191097632
355.48492672201246	1	learning	nonviolation	4	B	68	scene	indoor	1	0.5390634729992598
358.48488443088723	1	restudy	nonviolation	5	B	65	scene	indoor	1	0.727131298976019
361.4848420119378	1	learning	violation	4	A	23	scene	outdoor	1	0.6201488929800689
364.4848025378306	1	learning	violation	4	B	23	scene	indoor	1	0.7141944121103734
367.48476080293767	1	restudy	violation	5	B	22	scene	outdoor	1	0.5562349320389329
370.48471831693314	1	learning	violation	4	A	21	scene	outdoor	1	0.5882779539097099
373.4846802209504	1	learning	violation	4	B	21	scene	outdoor	1	0.5453139769379051
376.4846378588117	1	violation	violation	5	A	23	scene	outdoor	1	0.5773537261411548
379.48459667386487	1	violation	violation	1	X	23	face	female	1	0.7883931009564549
382.4845558989328	1	learning	nonviolation	4	A	69	scene	indoor	1	0.5764386870432645
385.48451518383814	1	learning	nonviolation	4	B	69	scene	indoor	1	0.5444613520521671
388.48449338180944	1	restudy	nonviolation	5	B	67	scene	outdoor	1	0.5745108400005847
391.48445320595056	1	learning	violation	4	A	24	scene	outdoor	1	0.5395109800156206
394.4844067587983	1	learning	violation	4	B	24	scene	outdoor	1	0.5935920272022486
397.484351497842	1	learning	nonviolation	4	A	70	scene	outdoor	1	0.6216400531120598
400.48430811893206	1	learning	nonviolation	4	B	70	scene	indoor	1	0.6816901469137521
403.48434249195265	1	restudy	nonviolation	6	B	67	scene	outdoor	1	0.5366708140354604
406.48427383997483	1	violation	violation	5	A	20	scene	indoor	1	0.5677235939074308
409.48419475182885	1	violation	violation	1	X	20	face	female	1	0.6698036161251366
412.48414225992747	1	violation	violation	6	A	22	scene	indoor	1	0.5298556389752775
415.48411023500375	1	violation	violation	1	Y	22	face	male	1	0.4498874489217997
418.4840786978602	1	violation	violation	5	A	19	scene	indoor	1	0.6209177679847926
421.4840305619873	1	violation	violation	1	X	19	face	female	1	0.5449632939416915
424.4839931807945	1	restudy	nonviolation	6	B	65	scene	indoor	1	0.6440122681669891
427.48395621287636	1	restudy	violation	5	B	18	scene	outdoor	1	0.6720464080572128
430.4839037288912	1	learning	nonviolation	2	A	71	scene	outdoor	1	0.6940097440965474
433.4838635979686	1	learning	nonviolation	2	B	71	scene	outdoor	1	0.5391382370144129
436.48381973290816	1	violation	violation	6	A	17	scene	outdoor	1	0.6491845699492842
439.48379452480003	1	violation	violation	1	Y	17	face	female	1	0.7132064991164953
442.4837432859931	1	restudy	violation	6	B	22	scene	outdoor	1	0.7532367419917136
445.48369915294467	1	restudy	nonviolation	5	B	70	scene	indoor	1	0.6253038789145648
448.4836578718386	1	restudy	nonviolation	5	B	68	scene	indoor	1	0.5513441821094602
451.48361733998166	1	learning	nonviolation	2	A	72	scene	indoor	1	0.8573836628347635
454.4835770339705	1	learning	nonviolation	2	B	72	scene	outdoor	1	0.6334246050100774
457.4835627099965	1	violation	violation	5	A	21	scene	outdoor	1	0.5704382478725165
460.48349259886885	1	violation	violation	1	X	21	face	male	1	0.6105100840795785
463.4834489619825	1	violation	violation	5	A	24	scene	outdoor	1	1.1445503318682313
466.48341167788016	1	violation	violation	1	X	24	face	male	1	0.833599790930748
469.48338238988066	1	restudy	violation	5	B	19	scene	indoor	1	0.5796244079247117
472.4833277650178	1	restudy	violation	5	B	23	scene	indoor	1	0.5096796827856451
475.48328741895966	1	violation	violation	6	A	18	scene	indoor	1	0.5627172999083996
478.4832479318138	1	violation	violation	1	Y	18	face	male	1	0.56975815910846
481.48321402701555	1	restudy	nonviolation	5	B	69	scene	indoor	1	0.5507885247934611
484.4831688059494	1	restudy	nonviolation	6	B	70	scene	indoor	1	0.5698458889964968
487.4831281418448	1	violation	violation	6	A	19	scene	indoor	1	0.5748779620043933
490.4830817829352	1	violation	violation	1	Y	19	face	female	1	0.5369321589823812
493.4830432659946	1	learning	nonviolation	3	A	72	scene	indoor	1	0.8629675528500229
496.48300468898384	1	learning	nonviolation	3	B	72	scene	outdoor	1	0.5380045908968896
499.48297478095634	1	restudy	violation	5	B	20	scene	indoor	1	0.8100337469950318
502.48292140988633	1	restudy	nonviolation	6	B	68	scene	indoor	1	0.6400846759788692
505.4828790188767	1	restudy	violation	5	B	21	scene	outdoor	1	1.0411291799973696
508.4828418327961	1	learning	nonviolation	3	A	71	scene	outdoor	1	0.6131719730328768
511.482798152836	1	learning	nonviolation	3	B	71	scene	outdoor	1	0.5552124280948192
514.4827551927883	1	learning	nonviolation	4	A	72	scene	indoor	1	0.5222571620251983
517.482714156853	1	learning	nonviolation	4	B	72	scene	outdoor	1	0.5462956221308559
520.4826775048858	1	restudy	violation	6	B	19	scene	indoor	1	0.8432479649782181
523.4826348829083	1	restudy	violation	6	B	17	scene	indoor	n/a	n/a
526.4825905738398	1	restudy	violation	5	B	24	scene	outdoor	1	0.6934233431238681
529.4825509248767	1	restudy	nonviolation	6	B	69	scene	indoor	1	0.4754610750824213
532.4825094328262	1	violation	violation	6	A	20	scene	indoor	1	0.884500086074695
535.4824674848934	1	violation	violation	1	Y	20	face	female	1	0.7955481200478971
538.4824353249278	1	restudy	violation	6	B	18	scene	outdoor	1	0.6945771020837128
541.4823867999949	1	violation	violation	6	A	23	scene	outdoor	1	0.702626152895391
544.4823592638131	1	violation	violation	1	Y	23	face	female	0	0.7406507581472397
547.4823059518822	1	restudy	violation	6	B	20	scene	indoor	1	0.4537093450780958
550.4822629769333	1	learning	nonviolation	4	A	71	scene	outdoor	1	0.4397530099377036
553.4822201139759	1	learning	nonviolation	4	B	71	scene	outdoor	1	0.4908009448554367
556.4821824450047	1	violation	violation	6	A	24	scene	outdoor	1	0.4958383617922664
559.4821403869428	1	violation	violation	1	Y	24	face	male	0	0.6058783498592675
562.4820987298153	1	restudy	nonviolation	5	B	72	scene	outdoor	1	0.4929171481635422
565.4820585488342	1	violation	violation	6	A	21	scene	outdoor	1	0.5429602090734988
568.4820164078848	1	violation	violation	1	Y	21	face	male	1	0.8999999000225216
571.4819766378497	1	restudy	nonviolation	5	B	71	scene	outdoor	1	0.5500419619493186
574.4819355048238	1	restudy	violation	6	B	24	scene	outdoor	0	0.4319964181631804
577.4818941538687	1	restudy	violation	6	B	21	scene	outdoor	1	0.5601224801503122
580.4818520529661	1	restudy	nonviolation	6	B	71	scene	outdoor	1	0.5491665059234947
583.4818107688334	1	restudy	violation	6	B	23	scene	indoor	1	0.5752065060660243
586.4817710518838	1	restudy	nonviolation	6	B	72	scene	outdoor	1	0.4802468160632998
