onset	duration	trial_type	condition	response_accuracy	response_time
13.509463800932279	2.5	B	violation	1	1.619846016052179
16.50942270795349	2.5	B	violation	1	1.3958817230304703
19.509396672016013	2.5	A	violation	1	0.731906512985006
22.50934609794058	2.5	A	violation	1	0.6549645729828626
25.509307460975837	2.5	B	nonviolation	1	1.0709995910292491
28.509265216998763	2.5	B	nonviolation	0	1.6170020289719105
31.509228863986213	2.5	B	violation	0	1.3090816079638898
34.50919280294329	2.5	A	nonviolation	1	0.6431192649761215
37.50915446190629	2.5	A	nonviolation	1	1.1671512860339135
40.50911044096574	2.5	B	nonviolation	0	1.5501328860409558
43.509074909961775	2.5	B	violation	0	1.564168274984695
46.50903789198492	2.5	A	nonviolation	1	0.7002692220266908
49.508997296914465	2.5	A	nonviolation	1	0.5992623580386862
52.50896540901157	2.5	A	nonviolation	1	0.8453469909727573
55.508926464011886	2.5	A	nonviolation	1	0.8823880709242076
58.508886939962395	2.5	A	violation	1	0.9374420919921248
61.508838778943755	2.5	A	nonviolation	1	0.7724534450098872
64.50880102894736	2.5	B	nonviolation	1	1.2855110190575942
67.50875980593264	2.5	B	nonviolation	0	1.065557877998799
70.5087350809481	2.5	A	violation	1	0.8605871109757572
73.50869182497263	2.5	A	nonviolation	1	1.1316321999765933
76.50864504801575	2.5	A	violation	1	0.6426741359755397
79.50861418200655	2.5	B	nonviolation	1	1.535699654952623
82.50857326993719	2.5	A	nonviolation	1	0.7396591010037809
85.50853387790266	2.5	B	violation	1	1.4207025261130184
88.50849498296157	2.5	B	violation	1	0.8558314580004662
91.50845000497064	2.5	B	nonviolation	1	1.3028319990262391
94.5084086669376	2.5	B	violation	0	1.8929060130612925
97.50836840993723	2.5	B	violation	0	1.7649461929686368
100.50833653798328	2.5	A	nonviolation	1	0.6509853210300207
103.50829492299818	2.5	B	nonviolation	0	1.037026769015938
106.50825609092136	2.5	B	violation	0	1.7120638060150668
109.50821128301321	2.5	B	violation	0	1.7350892059039325
112.50817810196895	2.5	B	nonviolation	0	2.3091406299499795
115.50813809700777	2.5	A	nonviolation	1	0.7751181509811431
118.50809372297955	2.5	A	violation	1	0.8932291029486805
121.50805047992614	2.5	A	violation	1	0.6472573300125077
124.50800992990843	2.5	B	nonviolation	0	0.9633232360938564
127.50797277700623	2.5	A	violation	1	1.0963532469468191
130.5079385410063	2.5	A	nonviolation	1	0.6633794759400189
133.50789244298358	2.5	A	violation	1	0.5654284500051291
136.50786248000804	2.5	A	violation	1	0.6864647530019283
139.5078216419788	2.5	B	nonviolation	0	1.126500842976384
142.5077758099651	2.5	A	violation	1	1.0835445020347834
145.5077334109228	2.5	A	violation	1	0.6485929210903123
148.50769340596162	2.5	B	violation	0	1.2556354380212724
151.50765448797029	2.5	B	nonviolation	0	1.357674928032793
154.50761609897017	2.5	B	violation	1	1.3637076190207154
157.50757591798902	2.5	A	nonviolation	1	0.8467461069812998
160.50755820795894	2.5	B	violation	0	1.639773905975744
163.50749535800423	2.5	A	violation	1	0.5748070609988645
166.50745494896546	2.5	B	violation	1	0.8878733649617061
169.50742194592019	2.5	B	violation	1	1.5509034000569957
172.5073768059956	2.5	B	nonviolation	1	1.078946043970063
175.50734246894714	2.5	A	nonviolation	1	0.9089818079955876
178.50731423101388	2.5	B	violation	0	1.187015562900342
181.50725716294255	2.5	A	violation	1	0.7160215720068663
184.50721294397957	2.5	B	nonviolation	0	1.0690451189875605
187.5071827359497	2.5	B	violation	0	1.0631486979546023
190.5071378860157	2.5	A	nonviolation	1	0.5751167238922789
193.5071023809724	2.5	A	violation	1	1.1881788099417463
196.5070580629399	2.5	A	nonviolation	1	0.5992675210582092
199.50702325790192	2.5	B	nonviolation	1	0.7402265820419416
202.4902980379993	2.5	A	violation	1	0.5749573699431494
205.5069372369908	2.5	B	violation	0	0.8853919659741223
208.49021842493684	2.5	B	violation	0	0.7421128710266203
211.50686437601692	2.5	B	nonviolation	0	1.0504695829004052
214.49014379701111	2.5	A	nonviolation	1	0.7951894189463928
217.49009920493697	2.5	B	nonviolation	0	0.7681525240186602
220.4900631249184	2.5	A	violation	1	0.5022719859844074
223.49002375092826	2.5	B	nonviolation	1	1.4843124320032075
226.48998305597343	2.5	A	nonviolation	1	0.7262729200301692
229.48994523601138	2.5	B	violation	0	1.4063887279480696
232.4899224439869	2.5	B	violation	0	0.9924198780208826
235.4899347219616	2.5	B	nonviolation	0	1.0304038380272686
238.48983002698517	2.5	A	violation	1	1.1535292039625349
241.48978029692083	2.5	B	nonviolation	0	0.8425569630926475
244.48974282795098	2.5	A	violation	1	0.7185976590262726
247.4897077549249	2.5	A	violation	1	0.7116314310114831
250.48966545599976	2.5	A	nonviolation	1	0.6886794059537351
253.48963439301585	2.5	A	violation	1	0.7627090549794957
256.4895966609474	2.5	A	nonviolation	1	0.8927411079639569
259.4895403169794	2.5	A	nonviolation	1	0.552798141958192
262.48950234695803	2.5	B	nonviolation	1	1.2028331699548291
265.48953552893363	2.5	B	nonviolation	0	0.6168005489744246
268.48946725099813	2.5	A	nonviolation	1	0.682873992016539
271.48937903693883	2.5	B	violation	0	0.8369625150226057
274.48941781395115	2.5	A	violation	1	0.931920896982774
277.4893738029059	2.5	B	nonviolation	1	0.7418888621032238
280.4892634939169	2.5	B	nonviolation	1	0.6200161880115047
283.48922783194575	2.5	A	nonviolation	1	0.7091110290493816
286.48919076193124	2.5	A	violation	1	0.6321550849825144
289.4891503649997	2.5	A	nonviolation	1	1.0531902119982988
292.48911481397226	2.5	A	violation	1	0.6972261989722028
295.4890632539755	2.5	B	violation	1	1.0702802989399058
298.48903077992145	2.5	B	violation	0	0.9553121860371904
301.48899552901275	2.5	B	nonviolation	0	0.8533506769454107
304.48895214498043	2.5	B	violation	0	1.0104239080101252
307.4889200970065	2.5	B	nonviolation	1	1.1284242569236085
310.48887547291815	2.5	A	violation	1	0.7064710210543126
313.48883920593653	2.5	B	violation	0	0.6535023760516196
316.4887905369978	2.5	A	nonviolation	1	0.7045542619889602
319.4887431199895	2.5	A	violation	1	0.770605313940905
322.48871477891225	2.5	B	violation	1	0.9886312549933792
325.4886766009731	2.5	B	violation	0	1.5567287269514054
328.4886275799945	2.5	A	violation	1	1.016721506952308
331.4885879709618	2.5	B	nonviolation	1	0.8317499350523576
334.48855521099176	2.5	A	violation	1	0.9637908439617604
337.488507197937	2.5	B	violation	0	1.265850604046136
340.4884791399818	2.5	A	violation	1	0.6228168969973922
343.48842943494674	2.5	A	nonviolation	1	0.5919143779901788
346.48838318395434	2.5	A	nonviolation	1	0.5429649719735608
349.4883493039524	2.5	A	nonviolation	1	0.6080276169814169
352.48831430601416	2.5	A	nonviolation	1	0.5400417629862204
355.48826508491766	2.5	A	nonviolation	1	0.5810809370595962
358.48822654294787	2.5	B	violation	0	0.8411260959692299
361.4881869489327	2.5	A	nonviolation	1	0.632161864079535
364.4881551309954	2.5	B	nonviolation	0	1.0081927159335464
367.4881027949741	2.5	A	nonviolation	1	0.5872157659614459
370.48805978999013	2.5	A	violation	1	0.5802828359883279
373.48804392700544	2.5	A	nonviolation	1	0.6683048219420016
376.48799133999273	2.5	A	violation	1	0.6193977139191702
379.4879504879937	2.5	B	nonviolation	0	0.8344023139216006
382.4879028149881	2.5	A	nonviolation	1	0.5834517379989848
385.4878676019143	2.5	A	violation	1	0.7384885679930449
388.48782512499014	2.5	B	violation	0	1.4165298310108485
391.4877920619911	2.5	B	nonviolation	0	1.376577134942636
394.4877470940119	2.5	B	violation	0	0.8426249769981949
397.4877081059385	2.5	A	violation	1	0.893603621982038
400.4876667029457	2.5	B	nonviolation	0	1.1286917050601917
403.4876258629374	2.5	B	nonviolation	0	1.4667367179645223
406.4875923409128	2.5	B	nonviolation	0	1.1997652680147441
409.48755133000674	2.5	B	violation	1	0.4988069869577885
412.48749999899877	2.5	B	nonviolation	1	0.8038264989154413
415.4874705679249	2.5	B	violation	1	1.3198909990023822
418.48742462496733	2.5	A	nonviolation	1	0.8199169669533148
421.48739024298266	2.5	A	violation	1	1.0639712819829583
424.48735105991364	2.5	B	nonviolation	0	1.7500053520780057
427.4873037840007	2.5	B	violation	0	1.3610522069502622
430.48727250494994	2.5	A	violation	1	0.5790868500480428
433.4872300559655	2.5	B	nonviolation	1	1.2201611639466137
436.48719213600265	2.5	A	nonviolation	1	0.9481740229530259
439.4871430729982	2.5	A	violation	1	0.681220477912575
442.48710208490957	2.5	B	violation	0	0.5812635930487886
445.48706249298993	2.5	B	nonviolation	1	0.7823037449270487
448.48702861496713	2.5	B	violation	1	0.8843368049710989
451.4869822739856	2.5	A	violation	1	0.7213829989777878
454.48694749199785	2.5	A	violation	1	0.5054116329411045
457.48690836294566	2.5	A	violation	1	0.5874585290439427
460.4868630769197	2.5	B	violation	0	1.148502783034928
463.4868297129869	2.5	B	violation	1	1.5345332189463081
466.48678774095606	2.5	B	nonviolation	0	1.6375961470184848
469.4867475850042	2.5	A	violation	1	0.982617927948013
472.4866986490088	2.5	A	nonviolation	1	0.9276660009054468
475.4866628899472	2.5	A	nonviolation	1	0.5456983799813315
478.4866275480017	2.5	B	violation	0	1.0487360400147736
481.48658575094316	2.5	A	violation	1	0.5647817499702796
484.48654610593803	2.5	A	violation	1	0.8138174220221117
487.4864949709736	2.5	A	nonviolation	1	0.8738706479780376
490.4864548199112	2.5	A	nonviolation	1	0.906915141036734
493.4864235459827	2.5	B	violation	1	0.9069472099654377
496.4863788739312	2.5	A	violation	1	0.7609692830592394
499.486338930903	2.5	B	nonviolation	1	0.6369572470430285
502.4863068530103	2.5	B	violation	0	0.6320606839144602
505.4862578379689	2.5	A	nonviolation	1	0.6251125460257754
508.48621740599634	2.5	B	nonviolation	0	0.7530792519683018
511.486178773921	2.5	A	violation	1	0.7471109010512009
514.4861374479951	2.5	A	nonviolation	1	0.7322383669670671
517.486102469964	2.5	B	violation	0	1.1972935999510812
520.4860629559262	2.5	B	nonviolation	1	0.6643138130893931
523.4860226719175	2.5	A	nonviolation	1	0.7053483360214159
526.4859753010096	2.5	B	violation	0	0.9803985379403456
529.4859421569854	2.5	A	nonviolation	1	1.1804313219618052
532.4858955299715	2.5	A	violation	1	0.603406626963988
535.4858628479997	2.5	B	nonviolation	0	1.2575079229427502
538.4858222060138	2.5	B	nonviolation	1	0.7915477639762685
541.4857826089718	2.5	A	nonviolation	1	1.0515904070343822
544.4857344079063	2.5	A	nonviolation	1	0.7896644260035828
547.4857005209196	2.5	A	violation	1	0.7136728339828551
550.4856557409512	2.5	B	nonviolation	0	1.0677228230051696
553.4856133540161	2.5	A	violation	1	0.5757608138956128
556.4855800559743	2.5	B	nonviolation	1	0.77774996496737
559.4855398419313	2.5	B	violation	1	0.7948392659891397
562.4854996909853	2.5	B	nonviolation	0	0.6048984759254381
565.485457681003	2.5	A	nonviolation	1	0.6099339079810306
568.4854188129539	2.5	A	nonviolation	1	0.6149576100287959
571.4853778729447	2.5	B	nonviolation	0	1.2080003820592538
574.4853378899861	2.5	B	violation	0	0.8320447140140459
577.485299252905	2.5	B	nonviolation	1	1.3040781490271909
580.485251578968	2.5	B	violation	0	0.9071237070020288
583.4852115879768	2.5	A	violation	1	0.8391742079984397
586.4851758629084	2.5	B	violation	0	1.0152022630209103
