onset	duration	trial_type	subcategory	response_accuracy	response_time
13.511323631002597	0.5	face	male	1	0.5505287109990604
15.011299787001917	0.5	face	male	1	0.4805544699993334
16.511271149000095	0.5	face	male	1	0.434578586002317
18.011253083001066	0.5	face	female	1	0.43259860100079095
19.511234272002184	0.5	face	female	1	0.5136169019970112
21.01121797900123	0.5	face	female	1	0.40663760700044804
22.511194324000826	0.5	face	male	1	0.40466152999943006
24.011172187001648	0.5	face	female	1	0.4586814649992448
25.511155148000398	0.5	face	female	1	0.4067060550005408
27.011136756002088	0.5	face	male	1	0.44971730500037665
43.51091721800185	0.5	object	manmade	1	0.5259377929978655
45.01090076000037	0.5	object	natural	1	0.4889620149988332
46.51088182899912	0.5	object	manmade	1	0.7389691680000396
48.010864833002415	0.5	object	natural	1	0.7269897749974916
49.51084045000243	0.5	object	manmade	1	0.5640128229970287
51.01082263900025	0.5	object	manmade	1	0.630032568002207
52.510800727999595	0.5	object	manmade	1	0.8010626819996105
54.01078229500126	0.5	object	natural	1	0.5380772130010882
55.510761143999844	0.5	object	natural	1	0.42410247000225354
57.01074391899965	0.5	object	natural	1	0.6091191600025923
73.51052363499912	0.5	face	female	1	0.5063353660007124
75.01050556799964	0.5	face	female	1	0.5023622930020792
76.51048557399918	0.5	face	male	1	0.5113762830005726
78.01046542699987	0.5	face	male	1	0.7323974720020487
79.51044526300029	0.5	face	male	1	0.53641079800218
81.0104289330011	0.5	face	male	1	0.44142898700010846
82.51040722499965	0.5	face	male	1	0.3694545239995932
84.01038877999963	0.5	face	female	1	0.3654749710003671
85.51036642200052	0.5	face	female	1	0.3834954800004198
87.01034789700134	0.5	face	female	1	0.5365203049987031
103.51012798900047	0.5	object	natural	1	0.5487373760006449
105.01010814000256	0.5	object	natural	1	0.5817551569998614
106.51010160700025	0.5	object	manmade	1	0.6557677240016346
108.01007113699961	0.5	object	natural	1	0.5617998689995147
109.51006158699965	0.5	object	natural	1	0.5617427320030401
111.01004190599997	0.5	object	natural	1	0.5068259780018707
112.49334310300037	0.5	object	manmade	1	0.845523988999048
114.0099930940014	0.5	object	manmade	1	0.5858825969989994
115.50997960899986	0.5	object	manmade	1	0.4698854950001987
117.0099516520022	0.5	object	manmade	1	0.6629129709981498
133.4930610320007	0.5	scene	indoor	1	0.48080969100192306
134.9930415609997	0.5	scene	outdoor	1	0.47783146500296425
136.4930246210024	0.5	scene	outdoor	1	0.5838458269972762
137.9929983280017	0.5	scene	indoor	1	0.46988161799890804
139.4929790890019	0.5	scene	indoor	1	0.4998929079993104
140.99296371799937	0.5	scene	indoor	1	0.6139018169997144
142.492936775001	0.5	scene	outdoor	1	0.5139360389985086
143.9929191750016	0.5	scene	outdoor	1	0.5709624269984488
145.4928992910027	0.5	scene	indoor	1	0.48496943199643283
146.99287732800076	0.5	scene	outdoor	1	0.5329945869998483
163.49266695500046	0.5	scene	outdoor	1	0.8982057440007338
164.99264319000213	0.5	scene	indoor	1	0.5362295269987953
166.49263385700033	0.5	scene	outdoor	1	0.7222396140023193
167.99261017200115	0.5	scene	indoor	n/a	n/a
169.49258831500265	0.5	scene	indoor	1	0.5612859019965981
170.99257000299986	0.5	scene	outdoor	1	0.5443024490014068
172.49255351300235	0.5	scene	outdoor	1	0.6133210589978262
173.99253425600182	0.5	scene	indoor	1	0.4813380640007381
175.49251953800194	0.5	scene	indoor	1	0.6423510729982809
176.9924905959997	0.5	scene	outdoor	1	0.6023889280004369
193.4922688709994	0.5	scene	outdoor	1	0.7796086779999314
194.9922523910027	0.5	scene	indoor	1	0.3966590569980326
196.4922453370018	0.5	scene	outdoor	1	0.7726362739995238
197.99221488600233	0.5	scene	indoor	1	0.4556612790001964
199.49222428800203	0.5	scene	outdoor	1	0.6976576119996025
200.99218446500163	0.5	scene	indoor	1	0.5387137219986471
202.49215683399962	0.5	scene	outdoor	1	0.4937238740021712
203.9921471460002	0.5	scene	indoor	1	0.5327284699997108
205.49210855099955	0.5	scene	outdoor	1	0.5887662920031289
206.99209313100073	0.5	scene	indoor	1	0.6677841380005702
223.49187054800132	0.5	object	natural	1	0.4340087870004936
224.99185647600098	0.5	object	natural	1	0.48302972099918406
226.49184775100002	0.5	object	natural	1	0.5160352660022909
227.9918166360003	0.5	object	natural	1	0.4980601419993036
229.49179525900036	0.5	object	manmade	1	0.4540815290019964
230.99177813999995	0.5	object	manmade	1	0.48409946900210343
232.49175420300162	0.5	object	manmade	0	0.3971280289988499
233.99173534200236	0.5	object	natural	1	0.46614642199710943
235.4917144989995	0.5	object	manmade	1	0.8021630069997627
236.99169528399943	0.5	object	manmade	1	0.5341821780020837
253.49147491999975	0.5	face	male	1	0.41940671400152496
254.99145873300222	0.5	face	male	1	0.3884532999982184
256.49528095700225	0.5	face	female	1	0.5026052879984491
257.9914172940007	0.5	face	male	1	0.403465960000176
259.49141295400113	0.5	face	male	1	0.3914741389999108
260.99138739400223	0.5	face	female	1	0.40549372599707567
262.491366061	0.5	face	male	1	0.48654391200034297
263.9913387790002	0.5	face	female	1	0.3785454450007819
265.49131711800146	0.5	face	female	1	0.5104889079993882
266.99129642000116	0.5	face	female	1	0.5185870919995068
283.4910781409999	0.5	scene	indoor	1	0.45281384400004754
284.9910564330021	0.5	scene	indoor	1	0.4448610319996078
286.49443607099965	0.5	scene	indoor	1	0.5324527869997837
287.9910165729998	0.5	scene	outdoor	1	0.4768729589995928
289.4909974660004	0.5	scene	outdoor	1	0.6108945870000753
290.9909801009999	0.5	scene	indoor	1	0.549906660002307
292.4909587389993	0.5	scene	outdoor	1	0.7919338290012092
293.99093302000256	0.5	scene	outdoor	1	0.7559700929996325
295.4909248940021	0.5	scene	indoor	1	0.5569710710005893
296.99090039099974	0.5	scene	outdoor	1	0.53398676100187
313.49067615400054	0.5	face	female	1	0.5082162280014018
314.9906604179996	0.5	face	male	1	0.42516338800123776
316.4918296700016	0.5	face	male	1	0.45405808400028036
317.99062626700106	0.5	face	female	1	0.49626201600040076
319.4906087700001	0.5	face	male	1	0.5782846830006747
320.9905801820023	0.5	face	male	1	0.5713152449970949
322.49055904000124	0.5	face	male	1	0.4993329739991168
323.99054928199985	0.5	face	female	1	0.4803411840002809
325.49051819700253	0.5	face	female	1	0.5033783170001698
326.99050930900194	0.5	face	female	1	0.4813870969992422
343.49027973600096	0.5	scene	indoor	1	0.5786147520011582
344.99025910600176	0.5	scene	outdoor	1	0.48365212399949087
346.49024299400116	0.5	scene	outdoor	1	0.602569141999993
347.9902186470026	0.5	scene	outdoor	0	0.8696795579999161
349.49019988299915	0.5	scene	outdoor	1	0.5446959850014537
350.9901800450025	0.5	scene	indoor	1	0.49172213499696227
352.4901586900014	0.5	scene	outdoor	1	0.6337507219977851
353.9901388489998	0.5	scene	indoor	1	0.6437563979998231
355.49012063900227	0.5	scene	indoor	1	0.5967783829983091
356.99010654000085	0.5	scene	indoor	1	0.6668043710014899
373.4898901380002	0.5	object	natural	1	0.7520067049990757
374.98986083800264	0.5	object	natural	1	0.5960403439967195
376.4898500849995	0.5	object	manmade	1	0.5780530170013662
377.9898277650027	0.5	object	manmade	1	0.42606839499785565
379.48980418499923	0.5	object	manmade	1	0.7071001200019964
380.98978165399967	0.5	object	natural	1	0.704117111999949
382.4897611209999	0.5	object	manmade	1	0.6571428880015446
383.9897396760025	0.5	object	natural	0	0.779159339999751
385.48972031200174	0.5	object	natural	1	0.9491830709994247
386.9896998660006	0.5	object	manmade	1	0.7752003370005696
403.48948075000226	0.5	object	manmade	1	0.8074167309969198
404.98946086100113	0.5	object	manmade	1	0.5794508479993965
406.4894449550011	0.5	object	natural	1	0.5714624409993121
407.9894234900021	0.5	object	manmade	1	0.5244745559975854
409.4894101300015	0.5	object	natural	1	0.6944975769984012
410.9893877300019	0.5	object	natural	1	0.5345171240005584
412.4893596710026	0.5	object	natural	1	0.5765405749989441
413.98934479700256	0.5	object	manmade	1	0.7075639419999789
415.4893191789997	0.5	object	natural	1	0.9485867750008765
416.98930058100086	0.5	object	manmade	1	0.6706080090007163
433.48908072300037	0.5	face	female	1	0.5268244540020532
434.98906079399967	0.5	face	male	1	0.48184711200156016
436.48904136400233	0.5	face	female	1	0.5148663330001
437.9890224030023	0.5	face	male	1	0.4078796659996442
439.48901004599975	0.5	face	male	1	0.394897445999959
440.9889795349991	0.5	face	female	1	0.4949265320028644
442.4889622280025	0.5	face	female	1	0.5599474609989556
443.98894240200025	0.5	face	male	1	0.48095947399997385
445.48892226799944	0.5	face	male	1	0.40798818900293554
446.98890177200155	0.5	face	female	1	0.5500083560000348
