onset	duration	trial_type	subcategory	response_accuracy	response_time
13.500735718000215	0.5	object	natural	1	0.8885813769884408
15.000724844983779	0.5	object	manmade	1	0.7065044880146161
16.500699106021784	0.5	object	manmade	1	0.7396172569715418
18.000676765979733	0.5	object	natural	1	0.4646447680424899
19.500651787035167	0.5	object	manmade	1	0.6066824979498051
21.000636479991954	0.5	object	natural	1	0.6796818790026009
22.500626473978627	0.5	object	natural	n/a	n/a
24.000593426986597	0.5	object	manmade	1	0.6197336940094829
25.50057640299201	0.5	object	manmade	0	0.7456620180164464
27.000556429033168	0.5	object	natural	n/a	n/a
43.50035136297811	0.5	scene	outdoor	1	0.8749041360570118
45.00033136102138	0.5	scene	indoor	1	0.6849236729904078
46.50030312902527	0.5	scene	indoor	1	0.5380170620046556
48.00028433301486	0.5	scene	indoor	1	0.5470372220152058
49.50026694103144	0.5	scene	indoor	1	0.4860493829473853
51.000257214996964	0.5	scene	outdoor	1	0.40906032803468406
52.50022311799694	0.5	scene	outdoor	1	0.5331054920097813
54.00020566303283	0.5	scene	outdoor	1	0.49511073395842686
55.50018611300038	0.5	scene	outdoor	1	0.7921366420341656
57.000162923999596	0.5	scene	indoor	1	0.5351681300089695
73.49994269700255	0.5	object	natural	1	0.6433838810189627
75.00394191098167	0.5	object	manmade	1	0.5473031010478735
76.49990608199732	0.5	object	manmade	1	0.6174139939830638
77.99989975302014	0.5	object	manmade	0	0.5554184289649129
79.4998684960301	0.5	object	manmade	1	0.824478990980424
81.01650440803496	0.5	object	natural	1	0.7527524249744602
82.49982990598073	0.5	object	manmade	n/a	n/a
83.99979962699581	0.5	object	natural	1	0.6525251140119508
85.49978850001935	0.5	object	natural	1	0.8025375719880685
86.99977523001144	0.5	object	natural	0	0.5584751279675402
103.49954923102632	0.5	scene	indoor	0	0.738776585960295
105.00279031100217	0.5	scene	outdoor	1	0.5075165699818172
106.49950596800772	0.5	scene	indoor	1	0.67181695997715
107.99948802398285	0.5	scene	indoor	1	0.5578374620527029
109.49946803803323	0.5	scene	outdoor	1	0.5818590819835663
110.9994460309972	0.5	scene	outdoor	1	0.5868791040265933
112.49944128800416	0.5	scene	outdoor	1	0.7498882450163364
113.99941241898341	0.5	scene	outdoor	1	0.47083634504815564
115.49938645301154	0.5	scene	indoor	1	0.5838977320236154
116.99936783203157	0.5	scene	indoor	1	0.5149601549492218
133.4991471520043	0.5	scene	indoor	1	0.6331042560050264
135.00066379498458	0.5	scene	outdoor	1	0.4785835320362821
136.49911222199444	0.5	scene	indoor	1	0.8852217530366033
137.99908668600256	0.5	scene	indoor	1	0.5622458109864965
139.4990670310217	0.5	scene	outdoor	1	0.6652670499752276
140.99905720201787	0.5	scene	indoor	1	0.8242751869838685
142.49902829300845	0.5	scene	outdoor	1	0.7773004189948551
143.9990092770313	0.5	scene	indoor	1	0.6852410109713674
145.49899910698878	0.5	scene	outdoor	1	0.5213585480232723
146.99896448198706	0.5	scene	outdoor	1	0.6993012420134619
163.4987527509802	0.5	scene	indoor	1	0.7575839630444534
164.9995352710248	0.5	scene	outdoor	1	0.7527987149660476
166.49871277902275	0.5	scene	outdoor	n/a	n/a
167.9986806770321	0.5	scene	outdoor	1	0.5326529589947313
169.49866187601583	0.5	scene	indoor	1	0.4876752429991029
170.99864445102867	0.5	scene	indoor	1	0.6576095419586636
172.49864004098345	0.5	scene	indoor	1	0.816697895003017
173.99860996898497	0.5	scene	outdoor	1	0.4337281330372207
175.49858363898238	0.5	scene	outdoor	1	0.40274911205051467
176.9985747979954	0.5	scene	indoor	1	0.5506815499975346
193.4983417519834	0.5	face	male	1	0.5439752630190924
194.9983315700083	0.5	face	male	1	0.4669758150121197
196.49830501701217	0.5	face	male	1	0.46100249799201265
197.99829895800212	0.5	face	male	1	0.4620425649918616
199.49827437999193	0.5	face	female	1	0.4070696100243367
200.99824535899097	0.5	face	female	1	0.42109601700212806
202.49822199903429	0.5	face	female	1	0.4241161679965444
203.99820301501313	0.5	face	female	1	0.532133430999238
205.49817714100936	0.5	face	female	1	0.7351726130000316
206.99816410499625	0.5	face	male	1	0.5191760580055416
223.49793716397835	0.5	face	female	1	0.5084047420532443
224.9979239840177	0.5	face	male	1	0.4624178200028837
226.49793498800136	0.5	face	male	1	0.5844068779842928
227.9978800439858	0.5	face	male	1	0.4404598320252262
229.49787614500383	0.5	face	male	1	0.3934650979936123
230.99784273502883	0.5	face	female	1	0.47650112595874816
232.49782728299033	0.5	face	female	1	0.4125173970242031
233.9977986299782	0.5	face	female	1	0.7125432610046118
235.4977809190168	0.5	face	female	1	0.43953545996919274
236.99775910301832	0.5	face	male	1	0.6495786209707148
253.4975461140275	0.5	object	natural	1	0.6017923739855178
254.99751560698496	0.5	object	natural	1	0.4868461250443943
256.4975207759999	0.5	object	manmade	1	0.5378310289816
257.99747949599987	0.5	object	manmade	1	0.48486789799062535
259.49746459000744	0.5	object	manmade	1	0.49090732901822776
260.99744458298665	0.5	object	natural	1	0.5319011030369438
262.49741433601594	0.5	object	natural	1	0.6939409979968332
263.9974002420204	0.5	object	manmade	1	0.513952684996184
265.49738948303275	0.5	object	manmade	1	0.7078732079826295
266.997357078013	0.5	object	natural	1	0.49099105497589335
283.4971350419801	0.5	scene	outdoor	0	0.8782125290017575
284.9971508150338	0.5	scene	outdoor	1	0.7622006409801543
286.49709940800676	0.5	scene	indoor	1	0.6652517860056832
287.9970704760053	0.5	scene	indoor	1	0.9402826729929075
289.4970727629843	0.5	scene	indoor	1	0.6612790290382691
290.99703377397964	0.5	scene	indoor	1	0.623317436024081
292.4970171240275	0.5	scene	outdoor	1	0.6582531089661643
293.9969978540321	0.5	scene	outdoor	1	0.6143545800005086
295.49697548901895	0.5	scene	outdoor	1	0.5883739499840885
296.9969569990062	0.5	scene	indoor	1	0.7883403709856793
313.4967427520314	0.5	object	natural	1	0.4956133609521203
314.9967239960097	0.5	object	manmade	1	0.4725562119856477
316.49669709498994	0.5	object	natural	1	0.6216525770141743
317.99668003601255	0.5	object	natural	0	0.8246640720171854
319.49664953601314	0.5	object	manmade	1	0.5027046430041082
320.99663014599355	0.5	object	manmade	1	0.715724322013557
322.49661526002456	0.5	object	manmade	1	0.8056552989874035
323.9965906870202	0.5	object	manmade	1	0.6067603109986521
325.4965801190119	0.5	object	natural	1	0.49177463399246335
326.9965504730353	0.5	object	natural	1	0.626784008985851
343.4963379059918	0.5	face	female	1	0.6390162450261414
344.996310780989	0.5	face	male	1	0.7080537159927189
346.4962913990021	0.5	face	female	1	0.5490674779866822
347.9962693050038	0.5	face	female	1	0.6940909859840758
349.49625229800586	0.5	face	male	1	0.555109407985583
350.99622896901565	0.5	face	male	1	0.599129909009207
352.4962198290159	0.5	face	female	1	0.6091398060088977
353.99619064701255	0.5	face	female	1	0.5881037060171366
355.4961751620285	0.5	face	male	1	0.5421891989535652
356.9961486890097	0.5	face	male	n/a	n/a
373.4959267260274	0.5	object	manmade	1	0.5814366929698735
374.99590774899116	0.5	object	natural	1	0.6374523130361922
376.49588974099606	0.5	object	natural	1	0.517392493027728
377.99588225298794	0.5	object	manmade	1	0.667474546993617
379.4958467599936	0.5	object	manmade	1	0.6585151629988104
380.9958262600121	0.5	object	natural	1	0.4255340520176105
382.49580365698785	0.5	object	manmade	1	0.6485559050342999
383.97911017702427	0.5	object	natural	1	0.4812579109566286
385.4790929550072	0.5	object	manmade	0	0.8562149039935321
386.995744304033	0.5	object	natural	1	0.8126218459801748
403.47885290998966	0.5	face	male	1	0.613539537996985
404.9788335650228	0.5	face	female	1	0.5174550809897482
406.4788207419915	0.5	face	female	1	0.5705431360402144
407.97879125899635	0.5	face	male	1	0.4815723450155929
409.47878115501953	0.5	face	male	1	0.5875556920072995
410.9787494170014	0.5	face	female	1	0.7766150570241734
412.4787309790263	0.5	face	female	1	0.6125589309958741
413.9787084480049	0.5	face	male	1	0.5416603150079027
415.4786915020086	0.5	face	female	1	0.7176776009728201
416.9786755180103	0.5	face	male	1	0.5376881909905933
433.4784481609822	0.5	face	male	1	0.6059209270169958
434.97842529800255	0.5	face	female	1	0.5579420190188102
436.4784178350237	0.5	face	female	1	0.8259601919562556
437.9783900670009	0.5	face	female	1	0.4349814099841751
439.47836944798473	0.5	face	male	1	0.4669980930048041
440.9783462990308	0.5	face	female	1	0.5250241819885559
442.4783252450288	0.5	face	male	1	0.5240464829839766
443.9783071309794	0.5	face	male	1	0.4649896460468881
445.4782869159826	0.5	face	female	1	0.4670848740497604
446.9782676870236	0.5	face	male	1	0.44810352398781106
