onset	duration	trial_type	reward_condition	condition	repetition	pairmate	pairID	response_accuracy	response_time
13.50697789600008	2.5	scene	reward	violation	1	A	21	0	1.0826740379998228
16.00697789600008	3.0	feedback	n/a	n/a	n/a	n/a	n/a	n/a	n/a
19.502082571000074	2.5	scene	neutral	violation	1	A	15	1	0.96456656700002
22.002082571000074	3.0	feedback	n/a	n/a	n/a	n/a	n/a	n/a	n/a
25.50596888900009	2.5	scene	neutral	nonviolation	1	A	77	1	0.692652353999847
28.00596888900009	3.0	feedback	n/a	n/a	n/a	n/a	n/a	n/a	n/a
31.506482609999924	2.5	scene	neutral	nonviolation	1	A	65	1	1.086167610000075
34.00648260999992	3.0	feedback	n/a	n/a	n/a	n/a	n/a	n/a	n/a
37.50184302699996	2.5	scene	reward	nonviolation	1	A	49	1	0.7608036660001289
40.00184302699996	3.0	feedback	n/a	n/a	n/a	n/a	n/a	n/a	n/a
43.504967038999894	2.5	scene	reward	nonviolation	1	A	88	0	0.7956837890001225
46.004967038999894	3.0	feedback	n/a	n/a	n/a	n/a	n/a	n/a	n/a
49.50477721099992	2.5	scene	neutral	violation	1	A	46	1	0.8268227529999876
52.00477721099992	3.0	feedback	n/a	n/a	n/a	n/a	n/a	n/a	n/a
55.505575992000104	2.5	scene	reward	violation	1	A	8	1	0.7640857979999964
58.005575992000104	3.0	feedback	n/a	n/a	n/a	n/a	n/a	n/a	n/a
61.5043153900001	2.5	scene	reward	violation	1	A	45	0	0.9583336709999912
64.0043153900001	3.0	feedback	n/a	n/a	n/a	n/a	n/a	n/a	n/a
67.50405185499993	2.5	scene	reward	nonviolation	1	A	75	0	0.6876005250001072
70.00405185499993	3.0	feedback	n/a	n/a	n/a	n/a	n/a	n/a	n/a
73.50457011000003	2.5	scene	reward	violation	1	A	35	0	1.2541155270000672
76.00457011000003	3.0	feedback	n/a	n/a	n/a	n/a	n/a	n/a	n/a
79.50308655499998	2.5	scene	neutral	nonviolation	1	A	52	1	0.9585747050000464
82.00308655499998	3.0	feedback	n/a	n/a	n/a	n/a	n/a	n/a	n/a
85.50282603999995	2.5	scene	neutral	nonviolation	1	A	55	1	0.7008299260000967
88.00282603999996	3.0	feedback	n/a	n/a	n/a	n/a	n/a	n/a	n/a
91.50256315	2.5	scene	neutral	nonviolation	1	A	62	1	0.8550954289999027
94.00256315	3.0	feedback	n/a	n/a	n/a	n/a	n/a	n/a	n/a
97.50330446199995	2.5	scene	neutral	violation	1	A	39	1	1.232350753999981
100.00330446199995	3.0	feedback	n/a	n/a	n/a	n/a	n/a	n/a	n/a
103.50305469699992	2.5	scene	reward	violation	1	A	29	1	0.9816082639999876
106.00305469699992	3.0	feedback	n/a	n/a	n/a	n/a	n/a	n/a	n/a
109.50279351800008	2.5	scene	reward	violation	1	A	7	0	0.7328757489999589
112.00279351800008	3.0	feedback	n/a	n/a	n/a	n/a	n/a	n/a	n/a
115.50253319100011	2.5	scene	neutral	nonviolation	1	A	70	1	1.0061296919998313
118.00253319100011	3.0	feedback	n/a	n/a	n/a	n/a	n/a	n/a	n/a
121.50128014300005	2.5	scene	reward	violation	1	A	11	1	0.6953836489999503
124.00128014300005	3.0	feedback	n/a	n/a	n/a	n/a	n/a	n/a	n/a
127.50179510899989	2.5	scene	neutral	violation	1	A	41	1	0.6659314440000799
130.00179510899991	3.0	feedback	n/a	n/a	n/a	n/a	n/a	n/a	n/a
133.5015389309999	2.5	scene	reward	nonviolation	1	A	78	0	0.7591212460001769
136.0015389309999	3.0	feedback	n/a	n/a	n/a	n/a	n/a	n/a	n/a
139.50049735800008	2.5	scene	neutral	nonviolation	1	A	86	1	0.7841678429999774
142.00049735800008	3.0	feedback	n/a	n/a	n/a	n/a	n/a	n/a	n/a
145.5004200410001	2.5	scene	neutral	violation	1	A	36	1	0.6582755679999082
148.0004200410001	3.0	feedback	n/a	n/a	n/a	n/a	n/a	n/a	n/a
151.5003410280001	2.5	scene	neutral	violation	1	A	30	1	0.8972479869999006
154.0003410280001	3.0	feedback	n/a	n/a	n/a	n/a	n/a	n/a	n/a
157.5002618420001	2.5	scene	reward	nonviolation	1	A	69	1	0.6984238399998048
160.0002618420001	3.0	feedback	n/a	n/a	n/a	n/a	n/a	n/a	n/a
163.500179785	2.5	scene	reward	violation	1	A	38	0	0.7884813369998938
166.000179785	3.0	feedback	n/a	n/a	n/a	n/a	n/a	n/a	n/a
169.50010144900008	2.5	scene	neutral	nonviolation	1	A	63	1	0.6695625649999783
172.00010144900008	3.0	feedback	n/a	n/a	n/a	n/a	n/a	n/a	n/a
175.50002399699997	2.5	scene	reward	violation	1	A	42	1	0.8546516280000559
178.00002399699997	3.0	feedback	n/a	n/a	n/a	n/a	n/a	n/a	n/a
181.499944999	2.5	scene	neutral	violation	1	A	24	1	0.7787491970000247
183.999944999	3.0	feedback	n/a	n/a	n/a	n/a	n/a	n/a	n/a
187.49986584499996	2.5	scene	reward	nonviolation	1	A	58	1	0.8317806430000019
189.99986584499996	3.0	feedback	n/a	n/a	n/a	n/a	n/a	n/a	n/a
193.4997857190001	2.5	scene	reward	nonviolation	1	A	59	0	0.919886746999964
195.9997857190001	3.0	feedback	n/a	n/a	n/a	n/a	n/a	n/a	n/a
199.499707836	2.5	scene	neutral	violation	1	A	4	0	1.1869647220000843
201.999707836	3.0	feedback	n/a	n/a	n/a	n/a	n/a	n/a	n/a
205.49962739900002	2.5	scene	neutral	violation	1	A	3	1	1.0390095459999884
207.99962739900002	3.0	feedback	n/a	n/a	n/a	n/a	n/a	n/a	n/a
211.4995552620001	2.5	scene	reward	violation	1	A	28	1	1.0011191569999482
213.9995552620001	3.0	feedback	n/a	n/a	n/a	n/a	n/a	n/a	n/a
217.4994676020001	2.5	scene	reward	nonviolation	1	A	87	0	1.0352030189999368
219.9994676020001	3.0	feedback	n/a	n/a	n/a	n/a	n/a	n/a	n/a
223.49939441900003	2.5	scene	neutral	nonviolation	1	A	92	0	1.542288367999845
225.99939441900003	3.0	feedback	n/a	n/a	n/a	n/a	n/a	n/a	n/a
229.4993108890001	2.5	scene	reward	nonviolation	1	A	54	1	0.7863617309999427
231.9993108890001	3.0	feedback	n/a	n/a	n/a	n/a	n/a	n/a	n/a
235.499231454	2.5	scene	reward	nonviolation	1	A	68	0	0.8224457989999792
237.999231454	3.0	feedback	n/a	n/a	n/a	n/a	n/a	n/a	n/a
241.49915204500007	2.5	scene	neutral	nonviolation	1	A	85	1	0.8235319729999446
243.99915204500007	3.0	feedback	n/a	n/a	n/a	n/a	n/a	n/a	n/a
247.499073317	2.5	scene	neutral	nonviolation	1	A	76	1	0.8996025040000859
249.999073317	3.0	feedback	n/a	n/a	n/a	n/a	n/a	n/a	n/a
253.49899086000005	2.5	scene	neutral	violation	1	A	22	1	0.6546902019999834
255.99899086000005	3.0	feedback	n/a	n/a	n/a	n/a	n/a	n/a	n/a
259.49891512	2.5	scene	reward	violation	1	A	19	0	0.6957644209999216
261.99891512	3.0	feedback	n/a	n/a	n/a	n/a	n/a	n/a	n/a
265.49883533	2.5	scene	reward	nonviolation	1	A	95	1	0.6488405009999951
267.99883533	3.0	feedback	n/a	n/a	n/a	n/a	n/a	n/a	n/a
271.49875623599996	2.5	scene	reward	nonviolation	1	A	90	0	0.7499354829999447
273.99875623599996	3.0	feedback	n/a	n/a	n/a	n/a	n/a	n/a	n/a
277.4986763530001	2.5	scene	reward	violation	1	A	16	1	0.8298912529999143
279.9986763530001	3.0	feedback	n/a	n/a	n/a	n/a	n/a	n/a	n/a
283.498605535	2.5	scene	neutral	violation	1	A	25	1	0.8735621460000402
285.998605535	3.0	feedback	n/a	n/a	n/a	n/a	n/a	n/a	n/a
289.49851819600013	2.5	scene	neutral	nonviolation	1	A	96	1	0.6611657009998453
291.99851819600013	3.0	feedback	n/a	n/a	n/a	n/a	n/a	n/a	n/a
295.49843666900006	2.5	scene	neutral	violation	1	A	10	1	0.7531750809998812
297.99843666900006	3.0	feedback	n/a	n/a	n/a	n/a	n/a	n/a	n/a
301.49835890300005	2.5	scene	neutral	violation	2	A	39	1	0.7203259759999128
303.99835890300005	3.0	feedback	n/a	n/a	n/a	n/a	n/a	n/a	n/a
307.4982778829999	2.5	scene	reward	violation	2	A	19	1	0.7004064530001415
309.9982778829999	3.0	feedback	n/a	n/a	n/a	n/a	n/a	n/a	n/a
313.4982001250001	2.5	scene	reward	violation	2	A	28	1	0.6739844999999605
315.9982001250001	3.0	feedback	n/a	n/a	n/a	n/a	n/a	n/a	n/a
319.498118086	2.5	scene	neutral	violation	2	A	25	1	0.6345637629999601
321.998118086	3.0	feedback	n/a	n/a	n/a	n/a	n/a	n/a	n/a
325.498040835	2.5	scene	neutral	nonviolation	2	A	77	1	0.5846440909999728
327.998040835	3.0	feedback	n/a	n/a	n/a	n/a	n/a	n/a	n/a
331.49796326	2.5	scene	reward	nonviolation	2	A	88	1	0.8597296640000422
333.99796326	3.0	feedback	n/a	n/a	n/a	n/a	n/a	n/a	n/a
337.49788152	2.5	scene	neutral	nonviolation	2	A	96	1	0.5797985570000037
339.99788152	3.0	feedback	n/a	n/a	n/a	n/a	n/a	n/a	n/a
343.49780188499994	2.5	scene	reward	violation	2	A	45	0	1.2418914950001179
345.99780188499994	3.0	feedback	n/a	n/a	n/a	n/a	n/a	n/a	n/a
349.49772207899986	2.5	scene	reward	violation	2	A	42	1	0.6439641090000805
351.99772207899986	3.0	feedback	n/a	n/a	n/a	n/a	n/a	n/a	n/a
355.4809754000001	2.5	scene	neutral	violation	2	A	15	1	0.6607116390000556
357.9809754000001	3.0	feedback	n/a	n/a	n/a	n/a	n/a	n/a	n/a
361.480898622	2.5	scene	neutral	nonviolation	2	A	76	1	0.8208012709999366
363.980898622	3.0	feedback	n/a	n/a	n/a	n/a	n/a	n/a	n/a
367.49748372799985	2.5	scene	neutral	violation	2	A	4	0	0.7012179749999632
369.99748372799985	3.0	feedback	n/a	n/a	n/a	n/a	n/a	n/a	n/a
373.480738946	2.5	scene	neutral	violation	2	A	3	1	1.0069583770000463
375.980738946	3.0	feedback	n/a	n/a	n/a	n/a	n/a	n/a	n/a
379.48065872499984	2.5	scene	neutral	nonviolation	2	A	52	1	0.8359787500003222
381.98065872499984	3.0	feedback	n/a	n/a	n/a	n/a	n/a	n/a	n/a
385.4805807159999	2.5	scene	reward	violation	2	A	11	1	0.921121000000312
387.9805807159999	3.0	feedback	n/a	n/a	n/a	n/a	n/a	n/a	n/a
391.4805018680002	2.5	scene	reward	violation	2	A	8	1	0.7531200429998535
393.9805018680002	3.0	feedback	n/a	n/a	n/a	n/a	n/a	n/a	n/a
397.48042284000013	2.5	scene	neutral	violation	2	A	24	1	0.7712791710000602
399.98042284000013	3.0	feedback	n/a	n/a	n/a	n/a	n/a	n/a	n/a
403.48034324000014	2.5	scene	reward	nonviolation	2	A	75	0	0.7043335439998373
405.98034324000014	3.0	feedback	n/a	n/a	n/a	n/a	n/a	n/a	n/a
409.4802638909998	2.5	scene	neutral	nonviolation	2	A	62	1	0.8034343660001468
411.9802638909998	3.0	feedback	n/a	n/a	n/a	n/a	n/a	n/a	n/a
415.4801848469999	2.5	scene	neutral	nonviolation	2	A	92	1	0.7075142930002585
417.9801848469999	3.0	feedback	n/a	n/a	n/a	n/a	n/a	n/a	n/a
421.480103746	2.5	scene	neutral	nonviolation	2	A	65	1	0.6936005420002402
423.980103746	3.0	feedback	n/a	n/a	n/a	n/a	n/a	n/a	n/a
427.48002965	2.5	scene	reward	nonviolation	2	A	58	1	0.6346770730001481
429.98002965	3.0	feedback	n/a	n/a	n/a	n/a	n/a	n/a	n/a
433.47994577900016	2.5	scene	reward	violation	2	A	38	1	0.7817599199997858
435.97994577900016	3.0	feedback	n/a	n/a	n/a	n/a	n/a	n/a	n/a
439.4798688960002	2.5	scene	neutral	violation	2	A	41	0	0.6618398949999573
441.9798688960002	3.0	feedback	n/a	n/a	n/a	n/a	n/a	n/a	n/a
445.47979011099983	2.5	scene	neutral	violation	2	A	22	1	0.7489159090000612
447.97979011099983	3.0	feedback	n/a	n/a	n/a	n/a	n/a	n/a	n/a
451.48421493	2.5	scene	neutral	nonviolation	2	A	55	1	0.7074827450001067
453.98421493	3.0	feedback	n/a	n/a	n/a	n/a	n/a	n/a	n/a
457.4796320369999	2.5	scene	neutral	nonviolation	2	A	63	1	0.6710245839999516
459.9796320369999	3.0	feedback	n/a	n/a	n/a	n/a	n/a	n/a	n/a
463.484307558	2.5	scene	neutral	nonviolation	2	A	70	1	0.8293953970000985
465.984307558	3.0	feedback	n/a	n/a	n/a	n/a	n/a	n/a	n/a
469.47947516799985	2.5	scene	neutral	nonviolation	2	A	85	1	0.6942269460000716
471.97947516799985	3.0	feedback	n/a	n/a	n/a	n/a	n/a	n/a	n/a
475.482796004	2.5	scene	reward	nonviolation	2	A	68	0	1.000947523999912
477.982796004	3.0	feedback	n/a	n/a	n/a	n/a	n/a	n/a	n/a
481.4833702439998	2.5	scene	reward	nonviolation	2	A	59	0	0.9713420860002769
483.9833702439998	3.0	feedback	n/a	n/a	n/a	n/a	n/a	n/a	n/a
487.4828882959998	2.5	scene	reward	violation	2	A	35	0	0.9558185949999825
489.9828882959998	3.0	feedback	n/a	n/a	n/a	n/a	n/a	n/a	n/a
493.4824667260002	2.5	scene	reward	violation	2	A	7	1	1.0152414929998486
495.9824667260002	3.0	feedback	n/a	n/a	n/a	n/a	n/a	n/a	n/a
499.48221310900016	2.5	scene	reward	nonviolation	2	A	54	1	0.8514946089999285
501.98221310900016	3.0	feedback	n/a	n/a	n/a	n/a	n/a	n/a	n/a
505.482725524	2.5	scene	reward	nonviolation	2	A	90	1	0.7299876060001225
507.982725524	3.0	feedback	n/a	n/a	n/a	n/a	n/a	n/a	n/a
511.481466984	2.5	scene	reward	nonviolation	2	A	78	0	0.8482461230000808
513.981466984	3.0	feedback	n/a	n/a	n/a	n/a	n/a	n/a	n/a
517.481218572	2.5	scene	reward	violation	2	A	21	0	1.102493914000206
519.981218572	3.0	feedback	n/a	n/a	n/a	n/a	n/a	n/a	n/a
523.4810217259999	2.5	scene	reward	violation	2	A	29	1	0.9026866940002948
525.9810217259999	3.0	feedback	n/a	n/a	n/a	n/a	n/a	n/a	n/a
529.4802727409999	2.5	scene	neutral	violation	2	A	10	1	1.3654377450002355
531.9802727409999	3.0	feedback	n/a	n/a	n/a	n/a	n/a	n/a	n/a
535.4800221759999	2.5	scene	reward	violation	2	A	16	1	0.7196972350002397
537.9800221759999	3.0	feedback	n/a	n/a	n/a	n/a	n/a	n/a	n/a
541.4802720819999	2.5	scene	neutral	violation	2	A	30	1	0.7964412020000964
543.9802720819999	3.0	feedback	n/a	n/a	n/a	n/a	n/a	n/a	n/a
547.4802364270001	2.5	scene	neutral	nonviolation	2	A	86	1	0.7484447909996561
549.9802364270001	3.0	feedback	n/a	n/a	n/a	n/a	n/a	n/a	n/a
553.4789789200001	2.5	scene	neutral	violation	2	A	36	1	0.7597587159998511
555.9789789200001	3.0	feedback	n/a	n/a	n/a	n/a	n/a	n/a	n/a
559.4792302369999	2.5	scene	reward	nonviolation	2	A	87	0	0.8914855170000919
561.9792302369999	3.0	feedback	n/a	n/a	n/a	n/a	n/a	n/a	n/a
565.4789733069999	2.5	scene	neutral	violation	2	A	46	1	0.7737437000000682
567.9789733069999	3.0	feedback	n/a	n/a	n/a	n/a	n/a	n/a	n/a
571.4787153529999	2.5	scene	reward	nonviolation	2	A	95	1	0.7730109819999598
573.9787153529999	3.0	feedback	n/a	n/a	n/a	n/a	n/a	n/a	n/a
577.4784578440001	2.5	scene	reward	nonviolation	2	A	49	1	1.0631782139998904
579.9784578440001	3.0	feedback	n/a	n/a	n/a	n/a	n/a	n/a	n/a
583.4782621339998	2.5	scene	reward	nonviolation	2	A	69	1	0.6454540440004166
585.9782621339998	3.0	feedback	n/a	n/a	n/a	n/a	n/a	n/a	n/a
