onset	duration	trial_type	condition	repetition	pairmate	pairID	category	subcategory	response_accuracy	response_time
13.505360779000055	1	prelearning	violation	1	B	14	scene	indoor	1	0.8390667359999497
16.505318834000267	1	prelearning	violation	1	B	15	scene	outdoor	1	0.5641127219996633
19.5052817210003	1	prelearning	nonviolation	1	A	63	scene	indoor	1	0.533151641999666
22.505241409000067	1	prelearning	nonviolation	1	A	58	scene	outdoor	1	0.4771974400000545
25.50520213300024	1	prelearning	nonviolation	1	A	64	scene	outdoor	1	0.4982279139999264
28.50516311000001	1	prelearning	violation	1	A	12	scene	outdoor	1	0.5522763750000195
31.50512193900022	1	prelearning	nonviolation	1	A	61	scene	indoor	1	0.8403304609996667
34.505083425000066	1	prelearning	violation	1	B	9	scene	outdoor	1	0.4553475110001273
37.505043491999906	1	prelearning	violation	1	A	11	scene	outdoor	0	0.7563987960002123
40.50500418899992	1	prelearning	violation	1	A	13	scene	indoor	1	0.6484434600001805
43.50496397000007	1	prelearning	violation	1	A	14	scene	outdoor	1	0.5854728320000504
46.504923100000276	1	prelearning	nonviolation	1	B	60	scene	indoor	1	0.5825133779999305
49.504883994000004	1	prelearning	violation	1	B	16	scene	outdoor	1	0.5665519300000597
52.50484414399989	1	prelearning	violation	1	A	10	scene	indoor	1	0.524600551000276
55.504804797999896	1	prelearning	nonviolation	1	B	57	scene	indoor	0	0.5916342750001604
58.50477227400006	1	prelearning	violation	1	A	15	scene	indoor	1	0.5076662810001835
61.504724955000256	1	prelearning	nonviolation	1	B	59	scene	outdoor	1	0.5497111669997139
64.50468443799991	1	prelearning	violation	1	B	11	scene	outdoor	1	0.506750072000159
67.5046432879999	1	prelearning	violation	1	B	10	scene	indoor	1	0.5158013550003488
70.50460405400008	1	prelearning	nonviolation	1	B	63	scene	outdoor	1	0.50183743100024
73.50456539900006	1	prelearning	nonviolation	1	B	58	scene	indoor	1	0.5068698790000781
76.50452493800003	1	prelearning	nonviolation	1	A	57	scene	outdoor	1	0.4659098380002433
79.504485208	1	prelearning	nonviolation	1	B	62	scene	outdoor	1	0.4609506380002131
82.50444478700001	1	prelearning	nonviolation	1	B	64	scene	outdoor	1	1.4439932119998955
85.50440558099992	1	prelearning	nonviolation	1	A	62	scene	indoor	1	0.5840354380002282
88.50436517700018	1	prelearning	nonviolation	1	A	60	scene	indoor	1	0.4950760359997729
91.50432720100024	1	prelearning	nonviolation	1	A	59	scene	outdoor	1	0.5629755999998451
94.50428523400022	1	prelearning	nonviolation	1	B	61	scene	indoor	1	0.5001675049998084
97.504245737	1	prelearning	violation	1	B	12	scene	indoor	1	0.5191926659999808
100.50420421800028	1	prelearning	violation	1	A	9	scene	outdoor	1	0.4431651009999769
103.50416309200001	1	prelearning	violation	1	A	16	scene	indoor	1	0.5702859450002506
106.50412422399995	1	prelearning	violation	1	B	13	scene	indoor	1	0.579328655000154
109.50408537900013	1	learning	nonviolation	2	A	57	scene	outdoor	1	0.4563589409999622
112.50404421800022	1	learning	nonviolation	2	B	57	scene	indoor	1	0.5234045439997317
115.50400520499987	1	learning	violation	2	A	9	scene	outdoor	1	0.5544386490000761
118.5039625710001	1	learning	violation	2	B	9	scene	outdoor	1	0.5174809549998827
121.50392507700009	1	learning	violation	2	A	10	scene	indoor	0	0.5665181439999287
124.50388437199992	1	learning	violation	2	B	10	scene	indoor	1	0.6204961670000557
127.50384448700017	1	learning	nonviolation	2	A	58	scene	outdoor	1	0.4965181630000188
130.50380461400027	1	learning	nonviolation	2	B	58	scene	indoor	1	0.5597205119997852
133.50376718000007	1	learning	violation	2	A	11	scene	outdoor	1	0.5216802820000339
136.50372410199998	1	learning	violation	2	B	11	scene	outdoor	1	0.5007176960002653
139.50368363999996	1	learning	violation	2	A	12	scene	outdoor	1	0.5108309050001479
142.50364371300017	1	learning	violation	2	B	12	scene	indoor	1	0.5828003030001128
145.50360324400023	1	learning	nonviolation	3	A	58	scene	outdoor	1	0.494928157999766
148.50356279000016	1	learning	nonviolation	3	B	58	scene	indoor	1	0.5498864420001155
151.50352264100002	1	learning	violation	3	A	11	scene	outdoor	1	0.5809330530000807
154.50348184599991	1	learning	violation	3	B	11	scene	outdoor	1	0.8519737610004086
157.50344199400024	1	learning	violation	2	A	13	scene	indoor	n/a	n/a
160.50339978800002	1	learning	violation	2	B	13	scene	indoor	1	0.5750513920002049
163.50336223100018	1	learning	nonviolation	2	A	59	scene	outdoor	1	0.4990872889998173
166.50332092500003	1	learning	nonviolation	2	B	59	scene	outdoor	1	0.5001382710001963
169.50327883399999	1	learning	violation	2	A	14	scene	outdoor	1	0.495175775000007
172.5032404000003	1	learning	violation	2	B	14	scene	indoor	1	0.7022126909996587
175.50319951200024	1	learning	violation	2	A	15	scene	indoor	1	0.6262836249998145
178.5031602260001	1	learning	violation	2	B	15	scene	outdoor	1	0.551325929000086
181.50311966900017	1	learning	violation	3	A	10	scene	indoor	1	0.4513386749999882
184.50308638100026	1	learning	violation	3	B	10	scene	indoor	1	0.5923621219999404
187.50303720700003	1	learning	violation	3	A	9	scene	outdoor	1	0.4624120429998584
190.50299672800017	1	learning	violation	3	B	9	scene	outdoor	1	0.11845348899987584
193.5029616450001	1	learning	violation	3	A	15	scene	indoor	1	0.6114957089998825
196.50291810099998	1	learning	violation	3	B	15	scene	outdoor	1	0.4685498570001982
199.5028778220003	1	learning	nonviolation	2	A	60	scene	indoor	0	0.1035121039999467
202.50283729800003	1	learning	nonviolation	2	B	60	scene	indoor	1	0.6156192739999824
205.5027956510003	1	learning	nonviolation	2	A	61	scene	indoor	1	0.530726496999705
208.5027542920002	1	learning	nonviolation	2	B	61	scene	indoor	1	0.5457031470000402
211.50271587799992	1	learning	nonviolation	3	A	57	scene	outdoor	1	0.3907350860004044
214.50267534900013	1	learning	nonviolation	3	B	57	scene	indoor	1	0.5517872909999824
217.5026351700003	1	learning	violation	3	A	12	scene	outdoor	1	0.9938229959998351
220.5025945080001	1	learning	violation	3	B	12	scene	indoor	1	0.6078713400002016
223.50255467100035	1	learning	violation	4	A	10	scene	indoor	1	0.5309714819995861
226.5025144400001	1	learning	violation	4	B	10	scene	indoor	0	0.3159436729997651
229.50247400600028	1	learning	violation	4	A	11	scene	outdoor	1	0.6870129929998257
232.50243332600033	1	learning	violation	4	B	11	scene	outdoor	1	0.4930293349998465
235.5023931200003	1	learning	nonviolation	3	A	61	scene	indoor	1	0.4770619859996259
238.50235198400014	1	learning	nonviolation	3	B	61	scene	indoor	1	0.5751039689998834
241.5023099790001	1	learning	nonviolation	4	A	57	scene	outdoor	1	0.4931404210001346
244.48560428400012	1	learning	nonviolation	4	B	57	scene	indoor	1	0.6318553689998225
247.5022288130004	1	learning	violation	3	A	14	scene	outdoor	1	0.4792556459997286
250.48552176000018	1	learning	violation	3	B	14	scene	indoor	1	0.4979439710000406
253.50215007299997	1	learning	violation	4	A	15	scene	indoor	1	0.502319252000234
256.4854403620002	1	learning	violation	4	B	15	scene	outdoor	1	0.4520212849997733
259.4854014440002	1	learning	violation	3	A	13	scene	indoor	1	0.5010590629999571
262.48535889999994	1	learning	violation	3	B	13	scene	indoor	0	0.5441068110003471
265.485318774	1	learning	nonviolation	4	A	58	scene	outdoor	1	0.4651441330001944
268.4852790580003	1	learning	nonviolation	4	B	58	scene	indoor	1	0.5151872689998527
271.48523736200013	1	learning	nonviolation	4	A	61	scene	indoor	1	0.5472157750000406
274.4851989580002	1	learning	nonviolation	4	B	61	scene	indoor	1	0.7712296810000225
277.48515979900003	1	learning	nonviolation	3	A	59	scene	outdoor	1	0.5353054309998697
280.4851191490002	1	learning	nonviolation	3	B	59	scene	outdoor	n/a	n/a
283.4850758450002	1	learning	violation	4	A	13	scene	indoor	1	0.4643854430000829
286.48503777	1	learning	violation	4	B	13	scene	indoor	1	0.4974366530000225
289.48499537299995	1	learning	violation	4	A	12	scene	outdoor	1	0.6004677300002186
292.48495379399986	1	learning	violation	4	B	12	scene	indoor	1	0.5045135059999666
295.48491427	1	learning	nonviolation	3	A	60	scene	indoor	1	0.5425508990001617
298.4848754970003	1	learning	nonviolation	3	B	60	scene	indoor	1	0.5255870199998753
301.4848347930001	1	learning	violation	4	A	9	scene	outdoor	1	0.469634939000116
304.4847922910003	1	learning	violation	4	B	9	scene	outdoor	1	0.5726810429996476
307.484753707	1	violation	violation	5	A	12	scene	outdoor	1	0.4457155660002172
310.48471113000005	1	violation	violation	1	X	12	face	female	1	0.6937580160001744
313.48467070600014	1	violation	violation	5	A	15	scene	indoor	1	0.4848762860001443
316.4846322420003	1	violation	violation	1	X	15	face	male	1	0.5108043289997113
319.4845897350001	1	learning	violation	4	A	14	scene	outdoor	1	1.1249019629999566
322.484550875	1	learning	violation	4	B	14	scene	indoor	1	0.5329280690002633
325.48451051600017	1	violation	violation	5	A	11	scene	outdoor	1	0.5308860689997346
328.48446990400004	1	violation	violation	1	X	11	face	male	1	0.5760007210001277
331.4844289990001	1	violation	violation	5	A	10	scene	indoor	1	0.5250632470001619
334.484386485	1	violation	violation	1	X	10	face	female	1	0.5500904400000763
337.48434811800007	1	violation	violation	5	A	9	scene	outdoor	1	0.4371504460000324
340.48430735799997	1	violation	violation	1	X	9	face	male	1	0.4811669480000091
343.4842654030004	1	learning	nonviolation	4	A	59	scene	outdoor	1	0.5141283699999804
346.4842262470001	1	learning	nonviolation	4	B	59	scene	outdoor	1	0.668247097999938
349.48418610199997	1	restudy	nonviolation	5	B	58	scene	indoor	1	0.5563631280001573
352.4841439760002	1	restudy	nonviolation	5	B	57	scene	indoor	0	0.9493486859996664
355.48410431400004	1	learning	violation	2	A	16	scene	indoor	1	0.7023758350001117
358.4840638720002	1	learning	violation	2	B	16	scene	outdoor	1	0.5264139129999421
361.484022736	1	learning	nonviolation	4	A	60	scene	indoor	1	0.5414874190000774
364.483982748	1	learning	nonviolation	4	B	60	scene	indoor	1	0.5464135800002623
367.48394001900033	1	violation	violation	5	A	13	scene	indoor	1	0.5585398509997503
370.483899712	1	violation	violation	1	X	13	face	female	1	0.5035740660000556
373.48386023600006	1	restudy	nonviolation	6	B	58	scene	indoor	1	0.5406247430000803
376.4838186259999	1	learning	nonviolation	2	A	62	scene	indoor	1	1.1806573000003482
379.483779318	1	learning	nonviolation	2	B	62	scene	outdoor	1	0.4217028360003496
382.4837388660003	1	restudy	violation	5	B	11	scene	outdoor	1	0.5187370619996727
385.483698129	1	restudy	nonviolation	5	B	61	scene	indoor	1	0.5527875170000698
388.48365753699994	1	restudy	nonviolation	6	B	57	scene	indoor	1	0.5358273960000588
391.48361766900007	1	restudy	violation	5	B	9	scene	outdoor	1	0.4528602010000213
394.483575326	1	restudy	nonviolation	5	B	60	scene	indoor	1	0.8649096950002786
397.4835358760001	1	restudy	violation	5	B	12	scene	indoor	1	0.5239405580000494
400.48349526700025	1	learning	nonviolation	2	A	63	scene	indoor	1	0.8039958350000234
403.4834538509999	1	learning	nonviolation	2	B	63	scene	outdoor	1	0.643028084999969
406.4834130960003	1	restudy	violation	5	B	15	scene	outdoor	1	0.4730686579996473
409.48337300999987	1	restudy	violation	5	B	10	scene	indoor	1	0.5441096230001676
412.4833307690001	1	violation	violation	5	A	14	scene	outdoor	1	0.5621469960001377
415.48328951800016	1	violation	violation	1	X	14	face	female	1	0.6651972839999871
418.483251139	1	learning	nonviolation	2	A	64	scene	outdoor	1	0.477231718999974
421.4832100230001	1	learning	nonviolation	2	B	64	scene	outdoor	1	0.4902724970002055
424.483169529	1	violation	violation	6	A	15	scene	indoor	1	0.4513189829999647
427.48312794199995	1	violation	violation	1	Y	15	face	male	1	0.489361044999896
430.48308852800034	1	learning	violation	3	A	16	scene	indoor	1	0.4633122569998704
433.4830478560002	1	learning	violation	3	B	16	scene	outdoor	1	0.4124336439999752
436.4830070060002	1	restudy	nonviolation	5	B	59	scene	outdoor	1	0.5684828640000887
439.48296454	1	violation	violation	6	A	9	scene	outdoor	1	0.5304757260000771
442.4829259850003	1	violation	violation	1	Y	9	face	male	1	0.5865609879997464
445.4828857090001	1	learning	nonviolation	3	A	64	scene	outdoor	1	0.5246021530001599
448.4828445830003	1	learning	nonviolation	3	B	64	scene	outdoor	1	0.510665237000012
451.4828040739999	1	learning	nonviolation	3	A	62	scene	indoor	1	0.5846853320003902
454.4827631860003	1	learning	nonviolation	3	B	62	scene	outdoor	1	0.5087246220000452
457.48271979800035	1	restudy	violation	5	B	13	scene	indoor	1	0.7217635109996081
460.4826803380002	1	restudy	nonviolation	6	B	59	scene	outdoor	1	0.5747989779997624
463.4826410750002	1	violation	violation	6	A	11	scene	outdoor	1	0.525848804999896
466.4826006410003	1	violation	violation	1	Y	11	face	male	1	0.588895871999739
469.482559395	1	restudy	nonviolation	6	B	61	scene	indoor	1	0.6509373400003824
472.4825176580002	1	violation	violation	6	A	13	scene	indoor	1	0.49797528599992796
475.48247674	1	violation	violation	1	Y	13	face	female	1	0.5440079180002613
478.48243759700017	1	restudy	violation	6	B	15	scene	outdoor	1	0.5170569520000754
481.48239762899993	1	restudy	nonviolation	6	B	60	scene	indoor	1	0.5621721720003734
484.4823566610002	1	learning	nonviolation	4	A	64	scene	outdoor	1	0.5731620779997684
487.48231606900026	1	learning	nonviolation	4	B	64	scene	outdoor	1	0.5281803489997401
490.482273271	1	violation	violation	6	A	12	scene	outdoor	1	0.5902143650000653
493.48223487299987	1	violation	violation	1	Y	12	face	female	1	0.4642594230003851
496.4821940900002	1	learning	nonviolation	4	A	62	scene	indoor	1	0.7062952289998066
499.4821533550002	1	learning	nonviolation	4	B	62	scene	outdoor	1	0.5073404979998486
502.48211214899993	1	learning	nonviolation	3	A	63	scene	indoor	1	0.5374417310003992
505.4820720490002	1	learning	nonviolation	3	B	63	scene	outdoor	1	0.5114388910001253
508.4820388100002	1	violation	violation	6	A	10	scene	indoor	1	0.4804524359997231
511.4819889330002	1	violation	violation	1	Y	10	face	female	1	0.5665715899999668
514.4819500250002	1	restudy	violation	6	B	11	scene	outdoor	1	1.2855494230002478
517.481908273	1	restudy	violation	5	B	14	scene	indoor	1	0.5175952469999174
520.481866864	1	learning	violation	4	A	16	scene	indoor	n/a	n/a
523.481827906	1	learning	violation	4	B	16	scene	outdoor	1	0.5446699429999171
526.481787617	1	restudy	violation	6	B	12	scene	indoor	1	0.6007096210000782
529.4817467900001	1	restudy	violation	6	B	9	scene	outdoor	1	0.5637472549997256
532.481705483	1	learning	nonviolation	4	A	63	scene	indoor	1	0.5207977790000768
535.481663516	1	learning	nonviolation	4	B	63	scene	outdoor	1	0.4338330760001554
538.4816251820002	1	restudy	violation	6	B	13	scene	indoor	1	0.5458739400000923
541.4815840760002	1	restudy	nonviolation	5	B	64	scene	outdoor	1	0.4959469479999825
544.4815432080001	1	violation	violation	5	A	16	scene	indoor	1	0.4749552540001787
547.4815030929999	1	violation	violation	1	X	16	face	male	1	0.5310007020002558
550.4814618390001	1	violation	violation	6	A	14	scene	outdoor	1	0.5620132849999209
553.4814210640002	1	violation	violation	1	Y	14	face	female	0	0.6730793490000906
556.481380964	1	restudy	nonviolation	5	B	63	scene	outdoor	1	0.6071183379999638
559.481337615	1	restudy	violation	5	B	16	scene	outdoor	1	0.4741631639999469
562.4812990129999	1	restudy	violation	6	B	10	scene	indoor	1	0.5101130180000837
565.4812589900002	1	restudy	nonviolation	5	B	62	scene	outdoor	1	0.470241519999945
568.4812179139999	1	restudy	nonviolation	6	B	64	scene	outdoor	1	0.4562840630001119
571.481177225	1	violation	violation	6	A	16	scene	indoor	1	0.5783298159999504
574.4811370510001	1	violation	violation	1	Y	16	face	male	1	0.6413662589998239
577.4810940159999	1	restudy	violation	6	B	14	scene	indoor	0	0.6334041780000916
580.4810570580003	1	restudy	nonviolation	6	B	63	scene	outdoor	1	0.4694497030000093
583.481014559	1	restudy	nonviolation	6	B	62	scene	outdoor	1	0.5754927360003421
586.480975814	1	restudy	violation	6	B	16	scene	outdoor	1	0.6475217070001236
