onset	duration	trial_type	condition	response_accuracy	response_time
13.505270301364362	2.5	B	violation	1	1.2531463550403714
16.50328283943236	2.5	A	violation	1	0.8370574936270714
19.503222620114684	2.5	A	nonviolation	1	0.9691897314041852
22.503174754790958	2.5	B	violation	1	1.6482043024152515
25.503151864744726	2.5	A	violation	1	0.9022558173164724
28.50310337357223	2.5	A	violation	1	0.6713124243542552
31.503071716055274	2.5	B	violation	1	1.1633371151983738
34.503032345324755	2.5	A	nonviolation	1	0.9733922742307186
37.502994881011546	2.5	B	nonviolation	1	1.2263795463368297
40.50295336917043	2.5	A	nonviolation	1	0.8034560782834888
43.502917180769145	2.5	A	violation	1	0.7745019420981407
46.50287604983896	2.5	B	nonviolation	0	0.9255388602614404
49.502830008976154	2.5	B	violation	0	1.7425831397995353
52.50280071794987	2.5	B	nonviolation	1	1.3146092379465701
55.502759113907814	2.5	A	nonviolation	1	1.0675755916163323
58.50271911267191	2.5	A	nonviolation	1	0.7936941953375936
61.50268320832402	2.5	B	violation	1	0.8307274850085378
64.50264515820889	2.5	B	violation	0	1.2757710944861174
67.50259801186621	2.5	A	violation	1	0.9778171852231026
70.50255704578012	2.5	B	violation	0	1.079863310791552
73.5025239828974	2.5	A	nonviolation	1	0.9078237181529404
76.50247925613075	2.5	A	violation	1	0.7719366801902652
79.50244146119803	2.5	B	violation	1	1.2009035851806402
82.50239942315966	2.5	B	nonviolation	1	1.1040244558826091
85.50236576609312	2.5	B	nonviolation	0	1.1180557031184435
88.50232641212642	2.5	A	violation	1	0.8830922646448016
91.50227935146539	2.5	A	nonviolation	1	0.8261390579864383
94.50224940944464	2.5	A	violation	1	0.8881670562550426
97.5022061197087	2.5	B	violation	1	1.1622123895213008
100.50216116756201	2.5	B	nonviolation	0	0.8962549632415175
103.5021405434236	2.5	B	nonviolation	0	0.835274520330131
106.50208304449914	2.5	A	violation	1	0.6983475256711245
109.50204198341815	2.5	A	nonviolation	1	0.6043830187991261
112.50200504343955	2.5	A	violation	1	0.5783942090347409
115.50197325833142	2.5	B	nonviolation	1	0.7263692375272512
118.50192780606449	2.5	B	nonviolation	0	0.7174924593418837
121.50189484097065	2.5	A	nonviolation	1	0.8025315534323454
124.50184724759309	2.5	B	violation	1	0.8185864938423038
127.50180742423979	2.5	A	violation	1	0.6306168399751186
130.50176968239248	2.5	B	nonviolation	0	1.0656586391851306
133.50172622315586	2.5	B	nonviolation	1	1.1386945713311434
136.50168772786856	2.5	A	violation	1	0.6127398731186986
139.5016516651958	2.5	B	violation	1	1.2267197500914335
142.50161272846162	2.5	A	nonviolation	1	0.535756953060627
145.50157661922276	2.5	B	violation	0	0.7998507833108306
148.50152964890003	2.5	B	nonviolation	0	0.7988962354138494
151.50149327795953	2.5	A	nonviolation	1	0.6409324696287513
154.5014580274001	2.5	A	nonviolation	1	0.7069671638309956
157.5014183567837	2.5	B	nonviolation	0	0.9719914617016912
160.50137776322663	2.5	A	nonviolation	1	0.6739762555807829
163.5013411929831	2.5	B	nonviolation	1	0.7040826333686709
166.50129988696423	2.5	A	violation	1	0.6690977551043034
169.50126267410818	2.5	B	nonviolation	0	0.909169239923358
172.5012226132676	2.5	A	violation	1	0.9422037629410625
175.50118417385968	2.5	B	violation	1	0.8182478882372379
178.501129809767	2.5	A	violation	1	0.784269230440259
181.50109507795426	2.5	A	nonviolation	1	1.064333779737353
184.5010608267039	2.5	B	violation	1	0.86636474262923
187.50101610552517	2.5	A	violation	1	1.0153975319117308
190.50098244473338	2.5	B	violation	0	1.1654313001781702
193.500932966359	2.5	A	nonviolation	1	0.7394975600764155
196.50090452376756	2.5	A	violation	1	1.214527769014239
199.5008579976857	2.5	B	violation	0	0.8795787682756782
202.5008246637881	2.5	A	violation	1	0.6665524067357183
205.50077955797317	2.5	B	violation	1	1.0436541000381112
208.50073803402486	2.5	A	violation	1	0.9146926486864686
211.500703452155	2.5	A	nonviolation	1	1.048726218752563
214.50066419597718	2.5	B	nonviolation	0	0.8477412164211273
217.50061686057597	2.5	A	nonviolation	1	0.7828231928870082
220.50057990197087	2.5	A	nonviolation	1	0.9928536023944616
223.5005437862128	2.5	B	violation	0	0.9058863762766124
226.50049209408462	2.5	A	nonviolation	1	0.6489413129165769
229.50046739447862	2.5	A	violation	1	0.5779690574854612
232.50041303783652	2.5	A	violation	1	0.7180226454511285
235.50038307998332	2.5	B	violation	0	0.9850631328299642
238.50034070946282	2.5	B	violation	0	0.983083606697619
241.5002956809476	2.5	B	nonviolation	1	0.8411183850839734
244.500268178992	2.5	A	violation	1	0.9220909867435694
247.50022998079655	2.5	B	nonviolation	1	0.8852107906714082
250.50019689742481	2.5	A	violation	1	0.6371925920248032
253.50014037266374	2.5	B	violation	1	1.026260974816978
256.5001029521227	2.5	B	nonviolation	1	1.259326994419098
259.50006687641144	2.5	B	violation	0	0.9563545165583492
262.50002748239785	2.5	A	nonviolation	1	0.6053325338289142
265.4999947352335	2.5	B	violation	0	1.0034441882744431
268.49995467904955	2.5	B	nonviolation	0	0.961482430808246
271.4999046912417	2.5	B	nonviolation	0	1.127538338303566
274.4998674755916	2.5	A	nonviolation	1	0.8275501783937216
277.4998302217573	2.5	B	nonviolation	0	0.6266240570694208
280.49978374969214	2.5	A	nonviolation	1	0.5335823502391577
283.4997455542907	2.5	B	nonviolation	0	0.8656412912532687
286.4996986640617	2.5	A	violation	1	0.8166766483336687
289.49967407993967	2.5	A	nonviolation	1	0.5867684781551361
292.49962272774434	2.5	B	violation	0	0.8937954604625702
295.4995867405087	2.5	A	nonviolation	1	0.7467795172706246
298.48287180159235	2.5	B	nonviolation	1	0.9225696884095668
301.4828342264518	2.5	A	nonviolation	1	0.6126102032139897
304.48279110342264	2.5	B	violation	0	0.6805703528225422
307.48276127316063	2.5	A	nonviolation	1	0.7496032658964396
310.4827115507796	2.5	A	nonviolation	1	0.7797344317659736
313.48266882356256	2.5	A	violation	1	0.7306987736374141
316.4826315799728	2.5	A	violation	1	0.9847418637946248
319.4825904192403	2.5	A	nonviolation	1	0.6358604617416859
322.4825534243137	2.5	A	violation	1	0.7138614887371659
325.4825122151524	2.5	B	nonviolation	0	1.024937452748418
328.4824726730585	2.5	B	violation	1	1.0399707024917006
331.4824391445145	2.5	B	nonviolation	0	0.9590137973427773
334.48239578306675	2.5	A	nonviolation	1	0.6530564902350307
337.4823567904532	2.5	A	nonviolation	1	0.5600958410650492
340.48230964690447	2.5	B	violation	1	0.8910868475213647
343.48227193951607	2.5	A	violation	1	0.5992027744650841
346.4822344854474	2.5	B	nonviolation	0	0.6531330225989223
349.48219353705645	2.5	B	nonviolation	0	0.8412558455020189
352.48215508833533	2.5	A	violation	1	0.6882518716156483
355.48211144097155	2.5	B	nonviolation	0	0.7192637408152223
358.4820770425722	2.5	B	nonviolation	0	0.6653764769434929
361.4820379791781	2.5	B	violation	0	0.8204126646742225
364.4819924999029	2.5	A	nonviolation	1	0.713377034291625
367.4819522090257	2.5	B	violation	0	0.9225005023181438
370.48191284481436	2.5	A	nonviolation	1	0.6755368243902922
373.481872824952	2.5	A	violation	1	0.6435812078416348
376.48183266632265	2.5	A	violation	1	0.7646372998133302
379.4817959470673	2.5	A	violation	1	0.7436525430530309
382.4817609060556	2.5	B	nonviolation	1	0.86669288482517
385.48171531688416	2.5	B	violation	0	0.6137413578107953
388.4816740630194	2.5	B	violation	0	1.0487792100757358
391.48163788672537	2.5	A	violation	1	0.6158171277493238
394.4815963283181	2.5	A	nonviolation	1	0.6268604295328261
397.4815563596785	2.5	B	violation	0	0.9248688817024232
400.48151480127126	2.5	B	nonviolation	0	0.9449409116059542
403.4814790813252	2.5	A	violation	1	0.8289782125502825
406.4814331280068	2.5	B	nonviolation	1	1.3850253270938993
409.4813958723098	2.5	B	nonviolation	0	0.780064333230257
412.4813701352105	2.5	B	violation	0	0.7340976875275373
415.48131663817907	2.5	B	violation	0	0.8761443998664618
418.4812857685611	2.5	A	violation	1	0.6451890543103218
421.48123687319463	2.5	A	nonviolation	1	0.8092256234958768
424.481218454428	2.5	B	violation	1	0.8262445321306586
427.4811777090654	2.5	A	nonviolation	1	0.8272853214293718
430.481118212454	2.5	A	violation	1	0.6773393927142024
433.48107944801455	2.5	B	nonviolation	0	1.0103826289996505
436.48105136677617	2.5	B	violation	1	1.0444089146330953
439.48106651380664	2.5	B	nonviolation	1	1.0233967937529087
442.48096324596565	2.5	A	nonviolation	1	1.0504996050149202
445.480917179957	2.5	A	nonviolation	1	0.7625426780432463
448.4808827387169	2.5	B	nonviolation	1	0.9105783933773636
451.48083557840437	2.5	B	nonviolation	1	0.933634982444346
454.48079582769424	2.5	B	violation	0	0.8146687904372811
457.48075746372336	2.5	B	violation	0	0.6947069708257914
460.48072248883545	2.5	B	violation	0	0.7147408435121179
463.4806789169088	2.5	A	violation	0	0.5937809469178319
466.48065248783684	2.5	A	violation	1	0.6958241211250424
469.48059951514006	2.5	B	nonviolation	0	1.0928703639656303
472.48057313077146	2.5	A	nonviolation	1	1.0058953389525414
475.4805208202452	2.5	A	nonviolation	1	0.5559445861726999
478.4804709861055	2.5	B	nonviolation	0	0.746996539644897
481.4804408289492	2.5	A	violation	1	0.6279834462329745
484.48040579445666	2.5	A	nonviolation	1	0.642060118727386
487.48035956546653	2.5	A	nonviolation	1	0.9441101327538491
490.48031907156115	2.5	A	nonviolation	1	0.5541478144004941
493.4802825441584	2.5	B	violation	0	0.7961853994056582
496.48024146817625	2.5	A	violation	1	0.690233675763011
499.48020952846855	2.5	B	violation	0	0.9201909890398384
502.48016399890173	2.5	B	nonviolation	0	0.8153091371059418
505.4801326347515	2.5	B	violation	0	0.620355274528265
508.4800820862874	2.5	B	nonviolation	0	0.8434127187356353
511.4800413940102	2.5	A	violation	1	0.8064399547874928
514.4800047259778	2.5	A	violation	1	0.8924868367612362
517.4799596527591	2.5	B	violation	0	0.8815128281712532
520.4799302238971	2.5	B	violation	1	0.8525120848789811
523.4798863874748	2.5	A	violation	1	0.6675906954333186
526.4798445142807	2.5	B	violation	0	0.7246345831081271
529.4798128968106	2.5	A	nonviolation	1	0.7816637922078371
532.4797551566735	2.5	A	nonviolation	1	0.8567182533442974
535.4797252621502	2.5	B	nonviolation	0	0.9557520672678947
538.4796867612748	2.5	A	violation	1	0.5997934229671955
541.4796378603205	2.5	A	violation	1	0.5507592996582389
544.479613549076	2.5	B	nonviolation	0	0.8118176246061921
547.4795719720423	2.5	B	violation	0	0.9919088911265136
550.4795321272686	2.5	B	nonviolation	1	1.0668645678088071
553.4795307610184	2.5	B	violation	1	0.6389457220211625
556.479447953403	2.5	A	nonviolation	1	0.6730249403044581
559.4794008135797	2.5	B	nonviolation	0	0.7760203592479229
562.4793760804461	2.5	A	nonviolation	1	0.8491074154153466
565.4793321285397	2.5	A	violation	1	0.8571463916450739
568.4792799195275	2.5	A	nonviolation	1	0.6851936373859644
571.4792395299299	2.5	A	nonviolation	1	0.6962223472073674
574.4792053243145	2.5	B	nonviolation	0	1.1462581660598516
577.4791709678248	2.5	B	nonviolation	1	0.6042978605255485
580.4791306070982	2.5	B	violation	1	0.8193487711250782
583.4790835008025	2.5	A	violation	1	0.6123422523960471
586.4790540095419	2.5	A	violation	1	0.6844336884096265
