onset	duration	trial_type	condition	response_accuracy	response_time
13.501648044999454	2.5	A	nonviolation	1	0.8016919519868679
16.50159914497635	2.5	A	nonviolation	1	0.7907423849974293
19.501569916988963	2.5	B	violation	0	2.2297727190016303
22.501521747995863	2.5	B	violation	0	1.671816918998957
25.501478531979963	2.5	A	violation	1	0.8368670170020778
28.501457112986827	2.5	A	violation	1	0.7389134489931166
31.501414112979546	2.5	B	nonviolation	0	1.332929687021533
34.50136586200097	2.5	A	nonviolation	1	1.0089819360000547
37.50132214499172	2.5	B	violation	0	1.5590272310073487
40.50128499398125	2.5	A	violation	1	1.1070641200058162
43.50131214899011	2.5	B	nonviolation	1	1.8130314059962984
46.501214308984345	2.5	B	nonviolation	1	1.3461362030066084
49.501164132991114	2.5	A	violation	1	1.1611815959913656
52.501131329976495	2.5	A	violation	1	0.9332167170068716
55.50108969098074	2.5	B	violation	0	1.0822551610181108
58.501051940984325	2.5	A	nonviolation	1	0.9982963239890524
61.50103473299532	2.5	A	violation	1	0.9513076809816994
64.50097719099722	2.5	B	nonviolation	0	1.336371445999248
67.50093250899226	2.5	B	violation	1	1.405415829998674
70.50088961099391	2.5	B	violation	0	1.9414592410030311
73.50086235199706	2.5	A	violation	1	1.503488030983135
76.50081793600111	2.5	A	nonviolation	1	0.9485376919910776
79.50077901597251	2.5	B	violation	0	1.288570452015847
82.5007305839972	2.5	A	nonviolation	1	0.9656247129896656
85.50070087698988	2.5	B	violation	0	1.4756573269842193
88.50065867300147	2.5	B	violation	n/a	n/a
91.5006084019842	2.5	B	violation	0	1.1517398759897333
94.50057116898823	2.5	B	violation	1	1.2847774809924886
97.5005305239756	2.5	A	nonviolation	1	0.8408205270243343
100.50050073399322	2.5	B	nonviolation	1	1.5728187889908438
103.5004465589882	2.5	A	nonviolation	1	1.4348412110120992
106.50040587899277	2.5	A	violation	1	1.2339487639837898
109.50037418198191	2.5	B	nonviolation	0	1.9329753210186027
112.50033633399288	2.5	A	nonviolation	1	1.132018721982604
115.50029931898462	2.5	A	violation	1	1.3710592610004824
118.50024534098337	2.5	B	nonviolation	0	1.487107357010245
121.50020451599266	2.5	B	nonviolation	1	1.6001499590056485
124.50016879898612	2.5	B	nonviolation	n/a	n/a
127.50013318398851	2.5	A	violation	1	1.2512286420096643
130.50008918598178	2.5	A	violation	1	1.0692660200002138
133.50004440097837	2.5	A	violation	1	0.9903136170178186
136.50001249898924	2.5	B	violation	0	1.0593495249922853
139.4999604879995	2.5	A	nonviolation	1	1.4843986509949898
142.49993449999604	2.5	B	nonviolation	n/a	n/a
145.49988003398175	2.5	A	nonviolation	n/a	n/a
148.4998505289841	2.5	A	nonviolation	1	1.0485101930098608
151.49981063697487	2.5	B	nonviolation	0	1.451551627018489
154.49976395699198	2.5	B	nonviolation	0	1.6685948589874895
157.49972339798114	2.5	B	nonviolation	0	1.1536366470099892
160.49967802097672	2.5	A	nonviolation	1	0.7786844490037765
163.49965023697587	2.5	B	nonviolation	1	1.106711782020284
166.4995957749779	2.5	B	violation	0	1.7937612000096124
169.49956856598146	2.5	A	nonviolation	1	1.1657971719978375
172.49952021299396	2.5	A	violation	1	1.0038476649788208
175.4994867789792	2.5	A	nonviolation	1	1.2078794660046697
178.49943900099606	2.5	A	violation	1	0.8069267279934138
181.49940636398966	2.5	A	nonviolation	1	0.7749661389971152
184.49935687799012	2.5	B	violation	0	1.2370107540045865
187.49931795700104	2.5	A	nonviolation	1	1.1519690589921083
190.49927364097675	2.5	A	violation	n/a	n/a
193.4992435599852	2.5	B	violation	0	0.8961206719977781
196.4992060389777	2.5	B	violation	0	1.3441570280119777
199.49915427397357	2.5	A	violation	1	0.8761663380137179
202.4991166339896	2.5	B	violation	0	2.1322455650079064
205.49907043599526	2.5	A	nonviolation	1	0.7832961769890971
208.4990318289784	2.5	B	violation	0	1.1303329580114223
211.49899612899756	2.5	B	nonviolation	n/a	n/a
214.49895094297244	2.5	B	nonviolation	0	1.2254225610231515
217.49891117599327	2.5	B	violation	1	1.4944530460052192
220.4988696019864	2.5	B	nonviolation	n/a	n/a
223.49883270898133	2.5	A	nonviolation	1	0.9015322799969
226.49879406898984	2.5	A	violation	1	0.6465787040069699
229.49875826700008	2.5	A	violation	1	1.0366097029764203
232.4987055399979	2.5	B	violation	0	1.5126665999996476
235.4986676039989	2.5	B	nonviolation	1	1.4747029739955906
238.4986311099783	2.5	A	nonviolation	1	0.9847419210127556
241.4985842649767	2.5	A	violation	1	1.8577844980172813
244.49855583597676	2.5	A	violation	1	0.7287323480122723
247.49850258298105	2.5	B	violation	n/a	n/a
250.49846595598498	2.5	A	nonviolation	1	1.1829068739898505
253.49843194297864	2.5	A	nonviolation	1	0.9659385280101559
256.4983830099809	2.5	B	nonviolation	0	1.8219888060120863
259.4983450869913	2.5	A	nonviolation	1	1.1260290200007148
262.4983050589799	2.5	B	nonviolation	0	0.9770697579951956
265.49826382799074	2.5	B	violation	0	1.0191113050095737
268.49822759698145	2.5	A	nonviolation	1	0.6211475919990335
271.4981774959888	2.5	B	nonviolation	0	0.9941279350023252
274.4981392909831	2.5	A	violation	1	0.8452371059975121
277.49810767098097	2.5	A	violation	1	0.9571896069974172
280.4980694249971	2.5	B	violation	n/a	n/a
283.4980193839874	2.5	A	violation	1	0.9153607109910809
286.49797598598525	2.5	B	violation	0	1.5253997620020527
289.4979366869957	2.5	B	nonviolation	0	1.028444269002648
292.4978972079989	2.5	B	nonviolation	0	1.0314500469830818
295.49786010198295	2.5	A	violation	n/a	n/a
298.49781236000126	2.5	B	nonviolation	n/a	n/a
301.49777754198294	2.5	A	nonviolation	1	0.7015397280047182
304.49773259699583	2.5	B	nonviolation	1	1.294648746988969
307.49769178399583	2.5	A	violation	1	0.8936892719939351
310.4976601269736	2.5	B	violation	0	1.3607222760037985
313.49760878898087	2.5	B	nonviolation	0	1.1417702070029918
316.4975724549731	2.5	B	violation	1	1.1778108330036048
319.49756137398066	2.5	A	violation	1	0.8998200549976899
322.497511005	2.5	B	violation	0	0.9248731299885548
325.4974458999932	2.5	B	violation	0	1.126935804990353
328.4974098059756	2.5	A	nonviolation	1	1.0489741940109525
331.49736806697916	2.5	A	nonviolation	1	1.0340206719993148
334.4973230439937	2.5	B	nonviolation	0	2.1250576489837845
337.49732682498865	2.5	A	violation	1	0.8700537910044659
340.4972435639938	2.5	B	violation	0	1.7731233219965359
343.49720696199796	2.5	A	violation	1	0.6421734780014958
346.49717058299575	2.5	A	nonviolation	1	1.2042137399839703
349.49713516698097	2.5	A	nonviolation	1	1.0792515100038145
352.49708049997565	2.5	B	nonviolation	0	1.5103071550256573
355.49704374998686	2.5	A	nonviolation	1	1.3893456629884895
358.49700496500014	2.5	A	nonviolation	1	1.7433796580007763
361.49699738097837	2.5	A	violation	n/a	n/a
364.4969178759784	2.5	A	nonviolation	1	1.643463258020347
367.4968793449807	2.5	A	violation	1	0.7875114940106869
370.49684008897754	2.5	B	violation	0	1.6835473420214842
373.49680559398263	2.5	A	violation	1	0.9415841159934644
376.4967524489912	2.5	A	nonviolation	1	1.1386357700102965
379.4967132849852	2.5	B	violation	0	1.075679636996938
382.4966766859871	2.5	A	nonviolation	1	0.8326620710140559
385.49664385599317	2.5	B	violation	0	1.6857460319879465
388.49659087497287	2.5	B	nonviolation	0	2.004794958018465
391.496549323987	2.5	B	nonviolation	0	0.9398450939916074
394.49650805298006	2.5	B	nonviolation	1	2.0608897850033827
397.4964723499725	2.5	B	violation	0	2.0629221690178383
400.4964269589982	2.5	A	violation	1	0.9609707519994116
403.4963910189981	2.5	B	nonviolation	0	0.9949980259989388
406.49636028599343	2.5	A	nonviolation	1	1.761037218006095
409.47962973697577	2.5	B	violation	0	1.793783354019979
412.4795871949754	2.5	A	violation	1	1.9208024560066408
415.4795508469979	2.5	B	nonviolation	0	1.5258444380015137
418.47950714299805	2.5	B	nonviolation	0	1.8168853039969688
421.47946732398117	2.5	A	violation	1	0.8439277830184437
424.4794239439943	2.5	A	violation	1	1.9739691930008116
427.4960630499992	2.5	A	nonviolation	1	0.8003305269812699
430.47935519597377	2.5	B	violation	0	1.8680401660094503
433.47931245598016	2.5	B	nonviolation	0	1.7920822369924283
436.4792682649859	2.5	B	violation	0	1.9251214060059283
439.47922959498834	2.5	B	nonviolation	0	2.1341658830060624
442.47918643397867	2.5	A	violation	1	1.4112091910210438
445.47914515298913	2.5	B	violation	0	1.0382545189931989
448.47910313800094	2.5	B	violation	0	0.9412948829995004
451.4790723779879	2.5	B	nonviolation	1	1.7483253440004771
454.4790199919953	2.5	A	violation	1	0.8873778699780814
457.4789806549961	2.5	A	nonviolation	1	0.7443505919945892
460.47893853698037	2.5	A	nonviolation	1	1.0974584319919811
463.4788987599895	2.5	B	nonviolation	0	1.2265047619875986
466.47886476898566	2.5	A	violation	1	1.3445306750072632
469.47883055597777	2.5	A	nonviolation	1	1.3185664330085274
472.4787746660004	2.5	A	nonviolation	0	2.1436215089925104
475.4787508859882	2.5	A	nonviolation	1	1.4476535459980369
478.47869655897375	2.5	A	violation	1	1.1407063440128695
481.47865771199577	2.5	B	violation	n/a	n/a
484.478612330975	2.5	B	nonviolation	n/a	n/a
487.4785803899868	2.5	B	nonviolation	0	1.4318255220132414
490.4785386829754	2.5	A	violation	1	1.0348386270052288
493.47851114097284	2.5	A	nonviolation	1	1.1858968320011627
496.4784684039769	2.5	A	nonviolation	1	1.1399350080173465
499.47840804498986	2.5	B	nonviolation	0	1.1479961450095288
502.47837515998975	2.5	B	nonviolation	n/a	n/a
505.4783339259738	2.5	B	violation	0	1.3020728420233354
508.4783014449931	2.5	B	nonviolation	1	1.2441153299878351
511.478245012986	2.5	A	violation	1	0.7581624840095174
514.4782177349844	2.5	A	nonviolation	n/a	n/a
517.4781625009782	2.5	A	violation	n/a	n/a
520.4781376589963	2.5	A	nonviolation	n/a	n/a
523.478097625979	2.5	A	violation	n/a	n/a
526.4780553569726	2.5	B	violation	n/a	n/a
529.4780193159822	2.5	A	violation	1	0.8423966330010444
532.4779624409857	2.5	B	nonviolation	0	1.2484476139943579
535.4779369499884	2.5	B	nonviolation	1	0.7503910950035788
538.4778793149744	2.5	B	violation	0	1.9355249990185257
541.4778490189929	2.5	B	nonviolation	0	0.9145591569831596
544.4778055769857	2.5	B	nonviolation	0	1.7706040730117818
547.4777679199759	2.5	B	nonviolation	0	0.7356576190213673
550.4777207239822	2.5	B	violation	1	1.3116908300144132
553.4776898889977	2.5	A	violation	1	0.9787237219861707
556.4776346779836	2.5	B	violation	n/a	n/a
559.4776034299866	2.5	B	violation	0	1.705809353996301
562.4775540509727	2.5	A	nonviolation	1	0.8018633750034496
565.4775185189793	2.5	A	nonviolation	1	1.41789674301981
568.4774718219996	2.5	B	violation	0	1.413941247999901
571.4774308989872	2.5	A	violation	n/a	n/a
574.4773882119916	2.5	B	violation	n/a	n/a
577.477350820991	2.5	B	violation	1	1.016059187008068
580.4773043519817	2.5	A	nonviolation	1	0.7931167570059188
583.4772796419858	2.5	A	violation	1	1.024132735008607
586.4772306439991	2.5	A	violation	1	1.1431837429990992
