onset	duration	trial_type	subcategory	response_accuracy	response_time
13.509334005066194	0.5	face	male	1	0.6932062339037657
15.009316037991084	0.5	face	female	1	0.8212202410213649
16.509298315970227	0.5	face	male	1	0.5822420690674335
18.00927317806054	0.5	face	male	1	0.4622647810028866
19.509259014041163	0.5	face	female	1	0.4992980610113591
21.009232004988007	0.5	face	female	1	0.4883097989950329
22.50921935203951	0.5	face	male	1	0.44732459797523916
24.00919386697933	0.5	face	female	1	0.5013296520337462
25.509175491984934	0.5	face	female	1	0.446364589035511
27.009154353057966	0.5	face	male	1	0.43839017394930124
43.50895094999578	0.5	scene	outdoor	1	0.8425907170167193
45.00892668601591	0.5	scene	indoor	1	0.6526140730129555
46.50890465697739	0.5	scene	indoor	1	0.5976377610350028
48.00888569303788	0.5	scene	outdoor	1	0.5646532470127568
49.508865009993315	0.5	scene	indoor	1	0.7376829800195992
51.00884551904164	0.5	scene	indoor	1	0.5597028399351984
52.50882443506271	0.5	scene	outdoor	1	0.6627143129007891
54.008804376004264	0.5	scene	outdoor	1	0.44273399596568197
55.50879337498918	0.5	scene	indoor	0	0.7117475069826469
57.00876640097704	0.5	scene	outdoor	1	0.5807806809898466
73.50856382597703	0.5	scene	indoor	1	0.7169884440954775
75.00854323804379	0.5	scene	indoor	1	0.7350084949284792
76.5085232820129	0.5	scene	outdoor	1	0.7430292189819738
78.00849840301089	0.5	scene	outdoor	n/a	n/a
79.50847368198447	0.5	scene	outdoor	1	0.8150793620152399
81.00846657797229	0.5	scene	outdoor	1	0.639011388993822
82.5084387990646	0.5	scene	indoor	1	0.7160594679880887
84.00841554999352	0.5	scene	indoor	1	0.8451367290690541
85.50839996698778	0.5	scene	outdoor	1	0.8281523250043392
87.00838321796618	0.5	scene	indoor	0	0.8691649870015681
103.50816170405596	0.5	scene	outdoor	1	0.7193876419914886
105.00814417097718	0.5	scene	indoor	1	0.6364112420706078
106.50813058507629	0.5	scene	indoor	1	0.626416724990122
108.00810534297489	0.5	scene	indoor	1	0.5854418959934264
109.50808737205807	0.5	scene	indoor	1	0.6234687779797241
111.00807686697226	0.5	scene	outdoor	1	0.5304697210667655
112.50804864696693	0.5	scene	outdoor	1	0.5985029060393572
114.00802598102018	0.5	scene	indoor	1	0.5845192009583116
115.50800562906079	0.5	scene	outdoor	1	0.5915508399484679
117.00799009902403	0.5	scene	outdoor	1	0.6495710579911247
133.50777053600177	0.5	face	male	1	0.4827809620182961
135.00775197101757	0.5	face	male	1	0.4787994669750333
136.50774382904638	0.5	face	female	1	0.6178104500286281
138.00772165507078	0.5	face	male	1	0.5258365329355001
139.50770675600506	0.5	face	female	1	0.4138471749611199
141.00768012797926	0.5	face	female	1	0.5458732220577076
142.50765374000184	0.5	face	female	1	0.5418979830574244
144.00763302005362	0.5	face	male	1	0.6519183130003512
145.50761627603788	0.5	face	female	1	0.8189464969327673
147.0075927610742	0.5	face	male	1	0.884844425949268
163.50738029903732	0.5	face	male	1	0.662179289967753
165.00736579403747	0.5	face	male	1	0.436195230926387
166.50734572403599	0.5	face	female	1	0.6982069979421794
168.00731826398987	0.5	face	male	1	0.9322431409964338
169.50730121298693	0.5	face	female	1	0.5822599460370839
171.00728240900207	0.5	face	male	1	0.7152762949699536
172.5072572469944	0.5	face	male	1	0.5023015449987724
174.00723840901628	0.5	face	female	1	0.7263599620200694
175.50722510402557	0.5	face	female	1	0.46932914503850043
177.00719932105858	0.5	face	female	1	0.4463609110098332
193.49030546704307	0.5	scene	indoor	1	0.6442556219408289
195.00697245297488	0.5	scene	indoor	1	0.7015142800519243
196.50695479800925	0.5	scene	indoor	1	0.48060528899077326
197.99025055300444	0.5	scene	indoor	1	0.5143100849818438
199.49023640202358	0.5	scene	outdoor	1	0.6613302939804271
201.00688365101814	0.5	scene	outdoor	1	0.455675813020207
202.49018993403297	0.5	scene	outdoor	1	0.8253784739645198
203.990168779972	0.5	scene	outdoor	1	0.5273902700282633
205.49015063303523	0.5	scene	outdoor	1	0.4464125740341842
207.006804579054	0.5	scene	indoor	1	0.5447638359619305
223.4899167190306	0.5	object	natural	1	0.7496486300369725
224.98989890597295	0.5	object	manmade	1	0.5156717370264232
226.48988217301667	0.5	object	natural	1	0.5036970659857616
227.98985958704725	0.5	object	manmade	1	0.6477090339176357
229.48984222405124	0.5	object	natural	1	0.527727669919841
230.98982074402738	0.5	object	natural	1	0.5887446959968656
232.4898035019869	0.5	object	manmade	n/a	n/a
233.98978304001503	0.5	object	manmade	1	0.6387903779977933
235.4897588500753	0.5	object	manmade	1	0.5807280089939013
236.9897391810082	0.5	object	natural	1	0.5178296290105209
253.48953847400844	0.5	object	manmade	1	0.5970300410408527
254.98951197904535	0.5	object	natural	1	0.8690643139416352
256.4895024310099	0.5	object	manmade	1	0.9040764239616692
257.989469888038	0.5	object	manmade	1	0.5570992069551721
259.489449220011	0.5	object	manmade	1	0.5671186409890652
260.98942697804887	0.5	object	natural	1	0.5990216099889949
262.4894178090617	0.5	object	natural	1	0.7810751079814509
263.98938448599074	0.5	object	natural	1	0.45018379006069154
265.4893733949866	0.5	object	natural	1	0.5551944740582258
266.98935858602636	0.5	object	manmade	1	0.6862170819658786
283.48912930698134	0.5	object	manmade	1	0.6154450060566887
284.9891214410309	0.5	object	natural	1	0.454455284983851
286.4939439810114	0.5	object	natural	1	0.5366279470035806
287.98907530202996	0.5	object	manmade	1	0.6124940619338304
289.48905157402623	0.5	object	manmade	1	0.6395260889548808
290.9890487380326	0.5	object	natural	1	0.48252669093199074
292.48901133600157	0.5	object	manmade	0	0.9485631530405954
293.9889922339935	0.5	object	natural	1	0.8175844970392063
295.48898640007246	0.5	object	manmade	1	0.6065921859117225
296.9889530100627	0.5	object	natural	1	0.7206223449902609
313.48873551003635	0.5	face	male	1	0.5328357859980315
314.98871654400136	0.5	face	female	1	0.6178546469891444
316.4930942100473	0.5	face	female	1	0.6444887729594484
317.9886937739793	0.5	face	male	1	0.5908769740490243
319.4886569180526	0.5	face	female	1	0.637919276021421
320.9886370720342	0.5	face	female	1	0.526932172011584
322.4886160630267	0.5	face	female	1	0.522962111979723
323.9886080790311	0.5	face	male	1	0.5519723260076717
325.4885769820539	0.5	face	male	1	0.5579999019391835
326.98856707604136	0.5	face	male	n/a	n/a
343.48833777196705	0.5	scene	indoor	1	0.6712434880901128
344.988321125973	0.5	scene	outdoor	1	0.5692580660106614
346.49050519801676	0.5	scene	indoor	0	0.8340749349445105
347.98827770201024	0.5	scene	indoor	0	0.7993005049647763
349.4882665750338	0.5	scene	outdoor	1	0.713312481995672
350.9882445510011	0.5	scene	indoor	1	0.7603426140267402
352.4882315719733	0.5	scene	indoor	1	0.609350226004608
353.9881997840712	0.5	scene	outdoor	1	0.8423849910032004
355.4881937369937	0.5	scene	outdoor	1	0.8953860710607842
356.98816523200367	0.5	scene	outdoor	1	0.7654243550496176
373.487943043001	0.5	object	natural	1	0.5866413690382615
374.98792541306466	0.5	object	manmade	1	0.7405899399891496
376.48968552204315	0.5	object	manmade	1	0.6308975869324058
377.98788011900615	0.5	object	manmade	1	0.6507059540599585
379.4878685430158	0.5	object	natural	1	0.548713795025833
380.9878478280734	0.5	object	manmade	1	0.6497335369931534
382.4878278990509	0.5	object	natural	1	0.5947502129711211
383.9878017769661	0.5	object	natural	1	0.6117834980832413
385.48778418207075	0.5	object	natural	1	0.6868001599796116
386.98776784399524	0.5	object	manmade	1	0.7618236290290952
403.4875460260082	0.5	face	female	1	0.6880419519729912
404.9875269670738	0.5	face	male	1	0.8140579209430143
406.48807953705546	0.5	face	male	1	0.6244575219461694
407.9874838810647	0.5	face	male	1	0.39010765589773655
409.4874653890729	0.5	face	female	1	0.8981311029056087
410.9874453069642	0.5	face	female	1	0.633146160049364
412.4874247669941	0.5	face	male	1	0.508168771979399
413.98740814905614	0.5	face	female	1	0.5251735609490424
415.48738585901447	0.5	face	male	1	0.9662056809756905
416.9873643160099	0.5	face	female	1	0.677221109974198
433.4871490340447	0.5	object	natural	1	0.5484392179641873
434.9871255620383	0.5	object	manmade	1	0.5704813339980319
436.4871119890595	0.5	object	manmade	1	0.9534827310126275
437.9870983280707	0.5	object	manmade	1	0.5354250659001991
439.4870704220375	0.5	object	natural	1	0.9665227900259197
440.9870474310592	0.5	object	natural	1	0.8845486389473081
442.48702989006415	0.5	object	manmade	1	0.6575691989855841
443.9870110290358	0.5	object	natural	1	0.8315800270065665
445.48699620796833	0.5	object	manmade	1	0.6585974880727008
446.9869672290515	0.5	object	natural	1	0.6956329649547115
