onset	duration	trial_type	condition	response_accuracy	response_time
13.499989303993061	2.5	B	violation	1	1.612510728999041
16.499951230944134	2.5	B	nonviolation	0	1.3235406610183418
19.49990672199056	2.5	A	violation	1	1.3975974390050396
22.499867212958637	2.5	A	violation	1	1.0276181630324572
25.49982827994973	2.5	A	violation	1	0.7945866549853235
28.49978869990445	2.5	A	violation	1	0.9067115070065483
31.49974974489305	2.5	A	nonviolation	1	0.9347444180166348
34.499710508971475	2.5	A	nonviolation	1	0.931785302935168
37.49967090494465	2.5	A	nonviolation	1	1.201828903052956
40.49963169894181	2.5	A	violation	1	0.7868645030539483
43.49959300400225	2.5	B	nonviolation	0	2.024913383997045
46.499552717898034	2.5	B	violation	0	1.6659462600946426
49.4995134639321	2.5	B	violation	0	1.5699844009941444
52.49947361694649	2.5	B	nonviolation	1	1.6790261350106448
55.49943463900127	2.5	B	nonviolation	0	1.358063157997094
58.49939506989904	2.5	A	nonviolation	1	1.3279657770181077
61.499355657957494	2.5	B	violation	1	0.9971408159472048
64.49931605590973	2.5	B	nonviolation	1	1.393181713996455
67.499276558985	2.5	B	nonviolation	0	1.7652229010127485
70.4992349979002	2.5	B	violation	1	1.6992652950575575
73.49919509992469	2.5	A	nonviolation	1	1.0433118829969317
76.49915507389233	2.5	A	violation	1	1.0923508320702242
79.49912377097644	2.5	A	nonviolation	1	0.9543766899732872
82.49907564197201	2.5	B	violation	1	1.637428242014721
85.49903798289597	2.5	B	nonviolation	0	1.3084647801006213
88.49899832799566	2.5	A	nonviolation	1	1.0815028439974412
91.49895828997249	2.5	A	violation	1	0.8925436480203643
94.49892373592593	2.5	B	nonviolation	1	1.2774931220337749
97.49887868296356	2.5	B	nonviolation	0	1.3146209319820628
100.49883866193704	2.5	B	violation	1	1.6547379719559103
103.4987988679204	2.5	A	violation	1	1.1807270710123705
106.49875717994291	2.5	A	nonviolation	1	0.7946662630420178
109.49871972098481	2.5	A	nonviolation	1	0.7727922679623589
112.49867921497207	2.5	B	violation	0	1.357824567006901
115.49863936193287	2.5	A	nonviolation	1	1.0368682449916378
118.49859917094	2.5	B	violation	1	1.4369106809608638
121.49855929089243	2.5	B	nonviolation	0	1.2719474560581148
124.49851883191151	2.5	A	violation	1	0.7829995780484751
127.49847955291624	2.5	A	nonviolation	1	0.7910240880446509
130.49844239198134	2.5	A	violation	1	0.8940851179650053
133.49839914089534	2.5	B	nonviolation	1	1.331114930100739
136.4983595639933	2.5	B	violation	1	1.400156804942526
139.49831969698423	2.5	A	violation	1	1.174207307980396
142.49827952799387	2.5	B	nonviolation	1	1.0152268710080534
145.4982390239602	2.5	B	violation	1	1.3792961740400642
148.49819937499706	2.5	A	violation	1	1.0133113529300315
151.4981593489647	2.5	B	violation	1	1.040357336984016
154.49811971199233	2.5	A	nonviolation	1	0.9743985589593648
157.49807654100002	2.5	A	violation	1	0.6534353099996224
160.498039422906	2.5	B	violation	1	1.151472591096535
163.4979981388897	2.5	A	nonviolation	1	1.085513593046926
166.49795986094978	2.5	B	violation	0	0.91956101404503
169.49791852699127	2.5	B	violation	0	1.63659522193484
172.4978790549794	2.5	B	violation	1	1.1136326339328662
175.49783838598526	2.5	B	nonviolation	1	0.9326836980180816
178.49779674399178	2.5	B	nonviolation	0	0.9647219449980184
181.49775890598542	2.5	B	nonviolation	0	1.262757709948346
184.4977222519228	2.5	B	nonviolation	0	1.2387890700483697
187.4976779459976	2.5	A	nonviolation	1	0.8638451979495585
190.49764032394162	2.5	B	nonviolation	0	1.5268790109548718
193.49759569088928	2.5	B	violation	0	1.2409245420712978
196.49755735800136	2.5	A	nonviolation	1	0.8769550019642338
199.4975165229989	2.5	A	nonviolation	1	0.8250260689528659
202.49747475795448	2.5	B	nonviolation	1	1.1200444579590112
205.4974363059737	2.5	A	violation	1	1.0680339980171991
208.4973940979689	2.5	B	nonviolation	0	1.3991528999758884
211.49735570896885	2.5	B	nonviolation	0	1.1721703950315714
214.49731570796573	2.5	A	nonviolation	1	0.8962808899814263
217.4972752869362	2.5	A	violation	1	0.8111397220054641
220.49723511096093	2.5	A	nonviolation	1	0.9892902439460158
223.49719510797883	2.5	A	nonviolation	1	1.5112024309346452
226.49715302791446	2.5	B	nonviolation	1	1.5723629699787125
229.4971122329589	2.5	A	violation	1	1.0294064769987017
232.497073778999	2.5	A	nonviolation	1	0.785449237911962
235.49703422689342	2.5	A	nonviolation	1	0.894350644084625
238.49699130898807	2.5	A	violation	1	0.8825286199571565
241.4969528169604	2.5	B	violation	1	1.5515702059492469
244.49691224994604	2.5	B	violation	1	1.3656092759920284
247.49687224789525	2.5	B	violation	1	1.2636656330432745
250.49683006689884	2.5	B	violation	1	1.2026991640450433
253.49679164995902	2.5	A	violation	1	1.0116579140303656
256.4967508899281	2.5	A	violation	1	1.4577714260667562
259.49670884490484	2.5	A	violation	1	1.1178237909916788
262.4966701898957	2.5	A	violation	1	1.2468827679986134
265.49663160589995	2.5	B	violation	1	1.2348986620781943
268.4965885649435	2.5	A	nonviolation	1	0.921876388019882
271.49655328888906	2.5	A	nonviolation	1	0.8460550410673022
274.4965088379104	2.5	B	violation	1	0.9430253900354728
277.4964658219833	2.5	A	violation	1	0.8720785059267655
280.4964360469021	2.5	B	nonviolation	1	0.7680929200723767
283.49638771591714	2.5	A	violation	1	0.7331417810637504
286.4963511369424	2.5	B	violation	1	1.2171300599584356
289.4963066469645	2.5	A	violation	1	0.7400807240046561
292.4962655470008	2.5	B	nonviolation	0	1.113262983970344
295.4962256489089	2.5	A	nonviolation	1	0.8973015589872375
298.4961832748959	2.5	B	nonviolation	0	1.2013478510780258
301.496142773889	2.5	A	violation	1	0.9143881420604884
304.4961022589123	2.5	A	nonviolation	1	0.9394270590273665
307.49606372800184	2.5	B	nonviolation	1	0.9503538470016792
310.4960258268984	2.5	B	violation	1	1.3015022000763563
313.49598337092897	2.5	B	nonviolation	0	1.0955439200624824
316.4959431369789	2.5	B	nonviolation	1	1.2145425960188732
319.49590219394304	2.5	B	violation	1	1.229635730967857
322.4958609628957	2.5	A	nonviolation	1	0.753671977086924
325.4958218249958	2.5	B	nonviolation	1	1.648727545980364
328.4957807349274	2.5	A	violation	1	0.8677636269712821
331.49574093997944	2.5	A	violation	1	1.2547945639817044
334.4956985159078	2.5	B	nonviolation	1	1.2548359810607508
337.49566503893584	2.5	B	violation	1	1.2808456619968638
340.4956193519756	2.5	A	nonviolation	1	1.0777994939126074
343.49557796493167	2.5	A	violation	1	0.7639379519969225
346.4955438699108	2.5	B	nonviolation	0	1.3699945480329916
349.49549751298036	2.5	A	violation	1	0.9760501260170712
352.49545757798484	2.5	B	violation	1	1.1760750429239124
355.49541569990106	2.5	A	nonviolation	0	1.515128290047869
358.4953758529154	2.5	B	violation	0	1.593187663005665
361.49533579999115	2.5	A	violation	1	0.9321811309782788
364.4952950399602	2.5	A	nonviolation	1	0.7562509150011465
367.4952544559492	2.5	A	nonviolation	1	1.0262848159763962
370.4952139289817	2.5	B	nonviolation	0	1.2433257389348
373.4951712139882	2.5	B	violation	1	1.3923666150076317
376.49513313395437	2.5	A	nonviolation	1	0.8634095520246774
379.49509049695916	2.5	A	violation	1	0.8514459639554843
382.4950515809469	2.5	A	violation	1	1.5654956320067868
385.4950110699283	2.5	B	nonviolation	1	1.82352718396578
388.4949699389981	2.5	A	nonviolation	1	1.38358271389734
391.4949300539447	2.5	B	nonviolation	1	1.4126115139806643
394.49489009799436	2.5	A	nonviolation	1	0.8026477589737624
397.49485126091173	2.5	B	violation	1	1.1875936420401558
400.4948065310018	2.5	A	nonviolation	1	0.7447331718867645
403.49476782092825	2.5	A	violation	1	0.7397718320135027
406.47805817797786	2.5	B	violation	1	1.5504830569261685
409.4946866428945	2.5	B	violation	0	1.5638526040129364
412.49464534397697	2.5	B	nonviolation	0	1.618904880946502
415.47794490994414	2.5	B	violation	1	1.1666014840593562
418.47793687495874	2.5	B	violation	0	1.1766070360317826
421.4945238739019	2.5	A	nonviolation	1	0.857030434999615
424.4778158809058	2.5	B	nonviolation	1	0.5827301060780883
427.47777548490564	2.5	B	violation	1	1.0997670150827616
430.4777340639848	2.5	A	violation	1	0.8858917439356446
433.4776968649821	2.5	A	nonviolation	1	1.3138488580007106
436.4776535260026	2.5	A	violation	1	0.8848993139108643
439.4776157710003	2.5	B	nonviolation	0	1.3579377679852769
442.4776005710009	2.5	A	violation	1	1.266962201916613
445.477534454898	2.5	B	nonviolation	0	1.2630390611011535
448.47749337891577	2.5	A	violation	1	0.840051586041227
451.47745238395873	2.5	B	nonviolation	0	1.3241024359595028
454.47741217294237	2.5	A	nonviolation	1	0.96814034297131
457.47737191198405	2.5	A	nonviolation	1	1.6481905529508367
460.47733072098345	2.5	A	violation	1	0.6222255869070068
463.4772946579615	2.5	B	violation	1	1.5242265859851614
466.47724958194885	2.5	A	nonviolation	1	0.9042969050351529
469.4772067639278	2.5	A	violation	1	0.8733404410304502
472.4771682949504	2.5	B	nonviolation	0	1.2403865819796922
475.47712826495984	2.5	B	nonviolation	1	0.9174236159306021
478.47708484600304	2.5	B	nonviolation	n/a	n/a
481.4770442359149	2.5	A	violation	1	1.0745040950132534
484.47700552397873	2.5	B	nonviolation	1	1.2105469279922545
487.47696478897706	2.5	A	violation	1	0.8665930029237643
490.4769241469912	2.5	A	violation	1	0.8186312029138207
493.47688338498114	2.5	A	violation	1	0.9696763559477404
496.47684161295183	2.5	A	nonviolation	1	0.7446286870399491
499.47680216399016	2.5	B	violation	1	1.0737615450052544
502.4767613389995	2.5	B	nonviolation	1	1.1128035309957343
505.47672079189215	2.5	B	violation	1	1.3298346920637414
508.4766799239442	2.5	B	violation	0	0.9848816279554741
511.47664186893957	2.5	A	violation	1	1.1849162389989942
514.4765957099153	2.5	B	nonviolation	0	1.3019614929798993
517.4765578279039	2.5	B	violation	0	0.8839951290283352
520.4765178849922	2.5	B	violation	0	0.7940505678998306
523.4764746238943	2.5	B	violation	1	1.3210863930871708
526.4764339469839	2.5	B	nonviolation	0	0.8421263759955764
529.4763956079261	2.5	B	violation	1	1.1551662749843672
532.4763543169247	2.5	A	violation	1	0.6682132090209052
535.4763145468896	2.5	A	nonviolation	1	1.0463292390340941
538.4762732409872	2.5	B	violation	1	1.3673630749108272
541.4762326088967	2.5	A	nonviolation	1	0.9973603721009568
544.4761917609721	2.5	A	nonviolation	1	1.098261480918154
547.4761530959513	2.5	B	violation	1	0.8264142710249871
550.4761101709446	2.5	A	violation	1	0.8424511819612235
553.4760699449107	2.5	A	nonviolation	1	0.8264958920190111
556.4760292359861	2.5	A	nonviolation	1	0.9005483019864187
559.4759884428931	2.5	B	nonviolation	0	1.2785000300500542
562.4759458058979	2.5	B	violation	1	0.6996215040562674
565.4759073969907	2.5	A	nonviolation	1	0.997578653972596
568.4758666019187	2.5	A	violation	1	1.0696959299966693
571.4758258369984	2.5	A	nonviolation	1	0.9877448629122229
574.4757854579948	2.5	B	nonviolation	1	0.93185456097126
577.4757426260039	2.5	B	nonviolation	0	1.3968229949241504
580.4757044729778	2.5	A	violation	0	2.1938704350031912
583.4756629829062	2.5	A	nonviolation	1	1.2349056520033628
586.4756229649065	2.5	B	violation	0	0.9639381110901012
