onset	duration	trial_type	condition	repetition	pairmate	pairID	category	subcategory	response_accuracy	response_time
13.512174238916488	1	postlearning	nonviolation	7	B	76	scene	indoor	1	0.6407970599830151
16.51214117417112	1	postlearning	violation	7	B	9	scene	indoor	1	0.5488364510238171
19.51209974009544	1	postlearning	nonviolation	7	B	85	scene	indoor	1	0.581874730065465
22.512050285004076	1	postlearning	nonviolation	7	B	90	scene	indoor	1	0.6589364758692682
25.512015521060675	1	postlearning	nonviolation	7	B	52	scene	outdoor	1	0.6308326050639153
28.51198067795485	1	postlearning	nonviolation	7	B	92	scene	indoor	1	0.6529981540516019
31.51192591618746	1	postlearning	violation	7	B	36	scene	indoor	1	0.5810022200457752
34.511904211249195	1	postlearning	nonviolation	7	B	63	scene	indoor	1	0.7130699027329683
37.51186420628801	1	postlearning	nonviolation	7	B	62	scene	outdoor	1	0.5481080147437751
40.51181627996265	1	postlearning	violation	7	B	19	scene	outdoor	1	0.5031608012504876
43.51178551791236	1	postlearning	nonviolation	7	B	60	scene	outdoor	1	0.5461901249364018
46.51173699414358	1	postlearning	nonviolation	7	B	95	scene	outdoor	1	0.5202409131452441
49.511708037927754	1	postlearning	nonviolation	7	B	51	scene	indoor	1	0.6012675063684583
52.51166033418849	1	postlearning	violation	7	B	32	scene	outdoor	1	0.5143169281072915
55.511618916876614	1	postlearning	violation	7	B	47	scene	outdoor	1	0.5123585481196642
58.51157984416932	1	postlearning	violation	7	B	34	scene	indoor	1	0.5213999249972403
61.51154079614207	1	postlearning	nonviolation	7	B	86	scene	indoor	1	0.5214312947355211
64.5115010458976	1	postlearning	violation	7	B	39	scene	outdoor	1	0.7064795303158462
67.51146387308836	1	postlearning	nonviolation	7	B	72	scene	indoor	1	0.5535142119042575
70.51143576018512	1	postlearning	violation	7	B	37	scene	indoor	1	0.5265658749267459
73.51139164622873	1	postlearning	nonviolation	7	B	89	scene	indoor	1	0.5735605149529874
76.51134365424514	1	postlearning	nonviolation	7	B	50	scene	indoor	1	0.5716404998674989
79.511302490253	1	postlearning	violation	7	B	18	scene	indoor	1	0.5166181977838278
82.51126426225528	1	postlearning	nonviolation	7	B	87	scene	outdoor	1	0.6027169176377356
85.51123233418913	1	postlearning	nonviolation	7	B	96	scene	outdoor	1	0.5087477150373161
88.4945078860037	1	postlearning	violation	7	B	22	scene	outdoor	1	0.4474692409858108
91.51114672888072	1	postlearning	violation	7	B	38	scene	outdoor	1	0.5728334160521626
94.51114076422527	1	postlearning	violation	7	B	10	scene	outdoor	1	0.453835395630449
97.51106338994578	1	postlearning	violation	7	B	20	scene	indoor	1	0.7619166863150895
100.49434900609778	1	postlearning	nonviolation	7	B	93	scene	indoor	1	0.6295853811316192
103.49430938716978	1	postlearning	nonviolation	7	B	66	scene	indoor	1	0.5376790729351342
106.49426658824085	1	postlearning	violation	7	B	12	scene	indoor	1	0.6377117265947163
109.49422934325413	1	postlearning	violation	7	B	43	scene	indoor	1	0.4957610727287829
112.49418445723131	1	postlearning	nonviolation	7	B	73	scene	indoor	1	0.4557949448935688
115.49415001226588	1	postlearning	violation	7	B	14	scene	outdoor	1	0.5418352466076612
118.49412086093798	1	postlearning	nonviolation	7	B	54	scene	indoor	1	0.5458701839670539
121.49407932395115	1	postlearning	nonviolation	7	B	70	scene	outdoor	1	0.5129090389236808
124.49403687193991	1	postlearning	nonviolation	7	B	67	scene	indoor	1	0.5639512501657009
127.49400803726165	1	postlearning	violation	7	B	29	scene	indoor	1	0.5589724006131291
130.49396493192762	1	postlearning	violation	7	B	2	scene	outdoor	1	0.7380179413594306
133.49391975812614	1	postlearning	violation	7	B	35	scene	indoor	1	0.5810727840289474
136.4938886500895	1	postlearning	nonviolation	7	B	55	scene	outdoor	1	0.4900998841039837
139.4938434092328	1	postlearning	violation	7	B	23	scene	outdoor	1	0.5191424787044525
142.49380151601508	1	postlearning	nonviolation	7	B	49	scene	indoor	1	0.6311874538660049
145.4937640852295	1	postlearning	violation	7	B	3	scene	indoor	1	0.5202254727482796
148.4937250521034	1	postlearning	violation	7	B	28	scene	indoor	1	0.5372863551601768
151.49368724506348	1	postlearning	violation	7	B	6	scene	indoor	1	0.5553041598759592
154.49364272784442	1	postlearning	nonviolation	7	B	94	scene	outdoor	1	0.5283470652066171
157.49361333390698	1	postlearning	nonviolation	7	B	57	scene	outdoor	1	0.6223768419586122
160.49357007816434	1	postlearning	violation	7	B	5	scene	indoor	1	0.6194183886982499
163.49353724299	1	postlearning	violation	7	B	48	scene	outdoor	1	0.6454521450214088
166.49349444499242	1	postlearning	nonviolation	7	B	77	scene	outdoor	1	0.7194968559779227
169.49343046406284	1	postlearning	violation	7	B	8	scene	indoor	1	0.510557696223259
172.49343563010913	1	postlearning	nonviolation	7	B	68	scene	indoor	1	0.6075557549484074
175.4933663760312	1	postlearning	violation	7	B	1	scene	outdoor	1	0.4816305669955909
178.49332332285118	1	postlearning	nonviolation	7	B	88	scene	outdoor	1	0.5906690000556409
181.49328476097438	1	postlearning	nonviolation	7	B	64	scene	indoor	1	0.6317107300274074
184.49325137306005	1	postlearning	nonviolation	7	B	80	scene	indoor	1	0.6297442871145904
187.49321901611984	1	postlearning	violation	7	B	42	scene	indoor	1	0.7287730630487204
190.4931670012884	1	postlearning	violation	7	B	45	scene	indoor	1	0.8568315478041768
193.49313034629452	1	postlearning	violation	7	B	41	scene	outdoor	1	0.5208661616779864
196.49308368889615	1	postlearning	violation	7	B	26	scene	outdoor	1	0.561767359264195
199.49305364396423	1	postlearning	nonviolation	7	B	65	scene	outdoor	1	0.7369373058900237
202.49300112389025	1	postlearning	violation	7	B	44	scene	indoor	1	0.6009925082325935
205.4929649811238	1	postlearning	nonviolation	7	B	74	scene	outdoor	1	0.5110437348484993
208.4929273491725	1	postlearning	nonviolation	7	B	53	scene	outdoor	1	0.549072349909693
211.49288743594659	1	postlearning	violation	7	B	7	scene	outdoor	1	0.5731238028965889
214.4928362299688	1	postlearning	nonviolation	7	B	69	scene	outdoor	1	0.5521603720262647
217.49281350290403	1	postlearning	violation	7	B	11	scene	indoor	1	0.5801788722164929
220.492782317102	1	postlearning	violation	7	B	15	scene	outdoor	1	0.5332172811031342
223.4927287930623	1	postlearning	nonviolation	7	B	59	scene	indoor	1	0.5381449921987951
226.49271683814004	1	postlearning	nonviolation	7	B	91	scene	outdoor	1	0.6062793787568808
229.49264949420467	1	postlearning	nonviolation	7	B	83	scene	indoor	1	0.5373487826436758
232.49260662589225	1	postlearning	violation	7	B	13	scene	outdoor	1	0.5463918051682413
235.4925631750375	1	postlearning	violation	7	B	33	scene	outdoor	1	0.6194370621815324
238.492520543281	1	postlearning	nonviolation	7	B	56	scene	outdoor	1	0.5374816716648638
241.4924874920398	1	postlearning	violation	7	B	31	scene	indoor	1	0.4855112321674824
244.49245279701427	1	postlearning	nonviolation	7	B	82	scene	outdoor	1	0.5775476112030447
247.49241506494585	1	postlearning	violation	7	B	4	scene	outdoor	1	0.5125859631225467
250.49237253610042	1	postlearning	violation	7	B	40	scene	outdoor	1	0.6716250320896506
253.4923327462748	1	postlearning	violation	7	B	21	scene	indoor	1	0.6436733598820865
256.4922929839231	1	postlearning	nonviolation	7	B	84	scene	indoor	1	0.9617075403220952
259.492245554924	1	postlearning	nonviolation	7	B	58	scene	indoor	1	0.6217557722702622
262.4922054838389	1	postlearning	violation	7	B	27	scene	outdoor	1	0.5167996063828468
265.49217421514913	1	postlearning	violation	7	B	24	scene	outdoor	1	0.5508289360441267
268.49212575424457	1	postlearning	violation	7	B	30	scene	indoor	1	0.4908834449015558
271.4920856761746	1	postlearning	nonviolation	7	B	79	scene	outdoor	1	0.6179151670075953
274.4920450542122	1	postlearning	nonviolation	7	B	71	scene	outdoor	1	0.5689541669562459
277.4920062641613	1	postlearning	violation	7	B	17	scene	indoor	1	0.5649982318282127
280.4919714438729	1	postlearning	violation	7	B	46	scene	outdoor	1	0.5110307582654059
283.4919376159087	1	postlearning	violation	7	B	25	scene	outdoor	1	0.4860677169635892
286.49188288114965	1	postlearning	violation	7	B	16	scene	indoor	1	0.7591255521401763
289.49184473091736	1	postlearning	nonviolation	7	B	81	scene	outdoor	1	0.5521665522828698
292.49180416902533	1	postlearning	nonviolation	7	B	61	scene	outdoor	1	0.5392029359936714
295.49176641413936	1	postlearning	nonviolation	7	B	75	scene	indoor	1	0.4582503759302199
298.49172610510135	1	postlearning	nonviolation	7	B	78	scene	outdoor	1	0.588280722964555
