onset	duration	trial_type	condition	response_accuracy	response_time
13.508283507078884	2.5	B	nonviolation	0	1.1731429360806942
16.5082400101237	2.5	B	violation	0	1.3271855670027437
19.50820898404345	2.5	A	violation	1	1.0420955549925566
22.508178777992725	2.5	A	nonviolation	1	1.0002699289470909
25.508125319145623	2.5	A	nonviolation	1	0.8172950381413102
28.50809521134943	2.5	A	violation	1	0.8013254469260573
31.508046862203628	2.5	B	nonviolation	0	0.9293780019506812
34.50801217323169	2.5	A	violation	1	0.9584168158471584
37.507983531337224	2.5	B	violation	0	0.9794407258741558
40.507931370288134	2.5	A	nonviolation	1	1.1204923409968617
43.507895312272005	2.5	A	nonviolation	1	0.8245336776599288
46.50785344233736	2.5	B	violation	1	1.0145536679774525
49.50781770702453	2.5	B	violation	0	1.4736118451692164
52.507775621023036	2.5	A	violation	1	0.9796557021327316
55.50773985125125	2.5	B	nonviolation	1	1.3226965288631618
58.50770870130509	2.5	B	nonviolation	1	1.390721696894616
61.50766996620223	2.5	B	violation	1	1.2707541971467435
64.50763316825032	2.5	A	violation	1	0.8967908108606935
67.5075819422491	2.5	A	violation	1	0.8798493077047169
70.50754596898332	2.5	A	nonviolation	1	0.9008092833682896
73.50749980099499	2.5	B	violation	1	1.2849311470054092
76.50746038695797	2.5	B	violation	1	1.3228503540158272
79.50743627920747	2.5	A	nonviolation	1	1.131007913965732
82.50739042414351	2.5	A	violation	1	1.1730426861904562
85.50734945293514	2.5	B	nonviolation	1	1.2080819653347137
88.50730435503647	2.5	A	violation	1	1.0970608731731772
91.50728501193224	2.5	B	nonviolation	1	1.2711495989933608
94.507224928122	2.5	A	violation	1	1.2692097411490977
97.50718972692266	2.5	B	violation	0	1.491242214106023
100.50715898023918	2.5	B	nonviolation	0	1.3162783570587635
103.50712245609614	2.5	B	violation	1	1.2573095238767564
106.50707197934388	2.5	B	violation	0	1.3183615966700015
109.50703464308754	2.5	B	nonviolation	0	1.4594003120437264
112.5069923340343	2.5	A	nonviolation	1	1.26344013819471
115.50695199333131	2.5	B	nonviolation	0	1.4584861197508872
118.50692568719387	2.5	A	nonviolation	1	1.2125142547301948
121.50687162904067	2.5	A	violation	1	1.1135630332864819
124.50684477901086	2.5	A	nonviolation	1	1.2805957910604775
127.50680209137501	2.5	B	nonviolation	0	1.4226366188377142
130.5067519759759	2.5	B	nonviolation	1	1.4035615012980998
133.5067108781077	2.5	A	violation	1	1.220725447870791
136.5066824941896	2.5	B	violation	1	1.4447574699297547
139.50663800537586	2.5	B	violation	0	1.5677973828278482
142.50659458106384	2.5	A	nonviolation	1	1.2368468232452872
145.5065527963452	2.5	A	nonviolation	1	1.2728867125697434
148.5065130162984	2.5	B	nonviolation	0	1.388926665764302
151.5064741913229	2.5	A	nonviolation	1	1.152963848784566
154.5064336741343	2.5	A	violation	1	1.1840103161521256
157.50640060100702	2.5	B	nonviolation	0	1.3450443963520229
160.5063596162945	2.5	B	nonviolation	0	1.3990985760465264
163.50632931198925	2.5	A	violation	1	1.2381151290610433
166.50627754209563	2.5	B	nonviolation	0	1.3001669198274612
169.5062439069152	2.5	B	violation	1	1.640196232125163
172.5062003559433	2.5	B	violation	0	1.7952373260632155
175.50616013212132	2.5	B	violation	1	1.1762890540994704
178.50612179329622	2.5	A	nonviolation	1	1.018325495067984
181.50607539713383	2.5	B	violation	0	1.119370091240853
184.50603787833825	2.5	A	nonviolation	1	1.0734014878980815
187.50600134814158	2.5	A	violation	1	1.0554494238458574
190.48929138900712	2.5	B	violation	1	1.2811512821353972
193.4892418193631	2.5	A	violation	1	1.217134392820299
196.48920142091808	2.5	B	nonviolation	1	1.4072419283911586
199.50583891337737	2.5	A	violation	1	1.1536087705753744
202.50580182019618	2.5	B	nonviolation	0	1.4566461881622672
205.505762769375	2.5	A	nonviolation	1	1.0966881639324129
208.4890428893268	2.5	B	violation	0	1.351339419838041
211.48900793399662	2.5	B	nonviolation	0	1.2754387902095914
214.48896553320807	2.5	A	nonviolation	1	1.404485016129911
217.48892875295127	2.5	A	nonviolation	1	1.4065169002860785
220.4888869710266	2.5	A	nonviolation	1	1.2935631782747803
223.48885029600933	2.5	B	nonviolation	1	1.454603356309235
226.48881308734417	2.5	B	nonviolation	1	1.4106374117545784
229.48877245793116	2.5	B	violation	1	1.443673674017191
232.4887286331505	2.5	B	violation	0	1.2577241868712008
235.4886897229589	2.5	A	violation	1	1.29577073501423
238.4886488253251	2.5	B	violation	1	1.5948008568957448
241.4886102862656	2.5	A	violation	1	1.3008398860692978
244.48856960097328	2.5	B	nonviolation	0	1.2168688541278243
247.4885292663239	2.5	A	nonviolation	1	1.0848984676413238
250.48849330004302	2.5	A	violation	1	1.13376901531592
253.48845280800012	2.5	B	violation	1	1.4709349232725801
256.4884113641456	2.5	A	violation	1	1.414006772916764
259.48836847394705	2.5	A	nonviolation	1	1.3250892241485417
262.4883274510503	2.5	A	violation	1	1.3461260963231323
265.4883037689142	2.5	A	nonviolation	1	1.3680869094096124
268.48825268819934	2.5	B	violation	0	1.349213075824082
271.4882316221483	2.5	A	nonviolation	1	1.4602200570516288
274.4881688123569	2.5	B	violation	1	1.6622834387235343
277.48813751898706	2.5	B	nonviolation	0	1.6453181323595345
280.4880926362239	2.5	B	nonviolation	1	1.5053630429320035
283.4880629843101	2.5	A	nonviolation	1	1.4063934809528291
286.48801653506234	2.5	B	nonviolation	1	1.586433559190482
289.48797571519384	2.5	A	violation	1	1.3444833187386394
292.48793530091643	2.5	A	nonviolation	1	1.4765204540453851
295.4878973630257	2.5	A	violation	1	1.5185712319798768
298.48786413203925	2.5	A	violation	1	1.3345746579580011
301.48782584303984	2.5	A	violation	1	1.373633832205087
304.4877709681168	2.5	A	violation	1	1.2056937008164823
307.4877396053634	2.5	A	violation	1	1.3217223989777267
310.48770377226174	2.5	A	nonviolation	1	1.4177527436986566
313.4876661649905	2.5	A	violation	1	1.3257981631904843
316.4876217711717	2.5	B	nonviolation	1	1.5108390878885984
319.4875821871683	2.5	B	nonviolation	0	1.2318783761002123
322.487535526976	2.5	B	nonviolation	1	1.3588036322034895
325.4875012859702	2.5	A	nonviolation	1	1.1139627913944423
328.4874565913342	2.5	B	nonviolation	0	1.3370148697867992
331.4874266013503	2.5	B	violation	1	1.2850346649065614
334.4873816333711	2.5	B	violation	0	1.372077312786132
337.48734670830885	2.5	A	violation	1	1.19412438897416
340.48729325132445	2.5	A	violation	1	1.131166271865368
343.48725578514865	2.5	B	violation	1	1.1492134579457345
346.4872162099928	2.5	B	nonviolation	1	1.3722492479719222
349.48717623203993	2.5	B	violation	0	1.4712927611544728
352.4871315532364	2.5	B	violation	1	1.3492787987925112
355.48709267517546	2.5	A	nonviolation	1	1.0693714348599317
358.4870497300289	2.5	A	nonviolation	1	0.8124182559549809
361.4870147723705	2.5	B	violation	1	1.2554534208029509
364.4869725662284	2.5	A	violation	1	0.9944925270974636
367.4869345212355	2.5	A	violation	1	0.8894696258939803
370.4868901921436	2.5	B	nonviolation	0	1.336579489056021
373.4868534351699	2.5	B	violation	1	1.266525690909475
376.48681310610846	2.5	B	violation	1	1.2276536440476775
379.4867787370458	2.5	A	violation	1	1.0006873030215502
382.4867417942732	2.5	A	nonviolation	1	0.9397303010337056
385.48668681597337	2.5	B	nonviolation	0	1.4657806069590151
388.4866551142186	2.5	B	violation	0	1.45581978186965
391.4866124643013	2.5	A	nonviolation	1	1.1248634117655456
394.48656853428116	2.5	B	nonviolation	1	1.258899660781026
397.48653360595927	2.5	A	nonviolation	1	0.9049413623288274
400.48649395909166	2.5	A	violation	1	1.0989776039496064
403.4864598959685	2.5	A	nonviolation	1	1.0170162841677666
406.48641912918544	2.5	B	nonviolation	1	1.473057036753744
409.4863793421537	2.5	B	nonviolation	1	1.019100857898593
412.4863562113605	2.5	A	nonviolation	1	0.9251203536987304
415.4862876092084	2.5	B	nonviolation	0	1.550186950713396
418.4862513379194	2.5	A	violation	1	1.1771975522860885
421.4862085101194	2.5	B	violation	0	1.2342614540830257
424.48618224915117	2.5	A	nonviolation	1	0.9232955379411578
427.4861307321116	2.5	B	violation	0	1.1103459149599075
430.48609191225836	2.5	B	violation	1	0.9263868648558856
433.48605896998197	2.5	A	nonviolation	1	0.931412439327687
436.4860167810693	2.5	A	nonviolation	1	1.0004606549628081
439.4859643471427	2.5	A	violation	1	1.018486050888896
442.4859258299694	2.5	B	nonviolation	0	1.202558119315654
445.4858895991929	2.5	B	violation	0	1.5005907197482884
448.48584924591705	2.5	A	nonviolation	1	0.9006339572370052
451.48581819795066	2.5	B	violation	0	1.1326001761481166
454.4857703382149	2.5	A	nonviolation	1	1.0447088987566528
457.4857330112718	2.5	B	violation	0	1.2277475777082143
460.4856895753183	2.5	B	violation	1	1.2997870207764208
463.48564983531827	2.5	B	violation	1	0.9378311298787594
466.48561801528564	2.5	B	nonviolation	0	0.9388644746504724
469.485568060074	2.5	B	nonviolation	1	1.1569132059812546
472.48552293423563	2.5	A	violation	1	1.395958743058145
475.48548266803846	2.5	B	violation	0	1.5319982282817364
478.48544976022094	2.5	A	violation	1	1.0680277817882595
481.4854073142633	2.5	B	nonviolation	1	1.5160740320570767
484.48536381404847	2.5	A	violation	1	1.2490183729678392
487.4853215729818	2.5	A	nonviolation	1	1.2271582232788203
490.4852869790048	2.5	B	nonviolation	1	1.3492040680721402
493.4852537782863	2.5	B	violation	1	1.0782329789362848
496.4852085523308	2.5	A	nonviolation	1	1.0632772496901453
499.48516655899584	2.5	A	nonviolation	1	1.138316798955202
502.485126059968	2.5	A	nonviolation	1	1.1713587101548908
505.48508589714766	2.5	A	nonviolation	1	1.1673957267776132
508.48504263302317	2.5	B	nonviolation	0	1.802440358325839
511.48501081811264	2.5	A	nonviolation	1	0.957470624241978
514.4849593741819	2.5	A	violation	1	1.0825315350666642
517.4849221329206	2.5	B	violation	0	1.3085699812509122
520.4848849042319	2.5	A	violation	1	0.9586016801185906
523.4848415660672	2.5	A	violation	1	1.1556458128616214
526.4848050060682	2.5	A	nonviolation	1	0.9846856482326984
529.4847648781724	2.5	A	violation	1	0.7767231501638889
532.4847212629393	2.5	B	nonviolation	0	1.2947698631323874
535.4846867271699	2.5	A	nonviolation	1	1.0738022229634223
538.4846435012296	2.5	B	nonviolation	0	1.1128534791059792
541.4846093473025	2.5	A	violation	1	0.7918849340640008
544.4845567350276	2.5	B	nonviolation	0	1.2119322139769793
547.4845279082656	2.5	B	nonviolation	1	0.8309637159109116
550.4844782412983	2.5	B	violation	0	1.1220133220776916
553.4844424962066	2.5	B	nonviolation	1	1.3040571389719844
556.4844011971727	2.5	A	nonviolation	1	1.1120940600521865
559.4843673971482	2.5	B	nonviolation	1	1.3581217410974205
562.4843281959184	2.5	B	violation	1	1.078164900187403
565.4842764320782	2.5	A	violation	1	0.8882150370627642
568.4842499983498	2.5	A	violation	1	1.1202414776198566
571.4841948542744	2.5	B	violation	1	1.1772948438301682
574.4841592772864	2.5	B	nonviolation	0	1.3462580619379878
577.4841263769194	2.5	A	violation	1	0.9773650490678848
580.4840767499992	2.5	B	violation	1	1.2844207012094555
583.4840362709947	2.5	A	violation	1	1.0663402592763305
586.483997747302	2.5	A	nonviolation	1	0.9824928878806533
