onset	duration	trial_type	subcategory	response_accuracy	response_time
13.505842121958267	0.5	face	male	1	0.3612040629959665
15.00581585697364	0.5	face	male	1	0.33024247002322227
16.505803747975733	0.5	face	female	1	0.3722360489773564
18.00577978597721	0.5	face	male	1	0.40626019501360133
19.50575878698146	0.5	face	male	1	0.653285929991398
21.005741437955294	0.5	face	male	1	0.3233074290328659
22.505718698957935	0.5	face	female	1	0.44132190803065896
24.00571397598833	0.5	face	female	1	0.37032873096177354
25.505677823966835	0.5	face	female	1	0.43036973802372813
27.005657724977937	0.5	face	female	1	0.5183864900027402
43.50543882697821	0.5	face	male	1	0.38660864799749106
45.00541975698434	0.5	face	male	1	0.39062492101220414
46.50692365295254	0.5	face	female	1	0.39812159701250494
48.00538411299931	0.5	face	female	1	0.377664053987246
49.5053613850032	0.5	face	female	1	0.40570269396994263
51.005350167979486	0.5	face	female	1	0.3856985419988632
52.50532931898488	0.5	face	male	1	0.5437218120205216
54.00530150299892	0.5	face	male	1	0.3467479049577378
55.50527908297954	0.5	face	male	1	0.4207672600168735
57.00525814195862	0.5	face	female	1	0.42879465699661523
73.50505157897715	0.5	object	manmade	1	0.6800025230040774
75.00503047998063	0.5	object	natural	1	0.5320103240082972
76.50499856396345	0.5	object	natural	1	0.43904780701268464
78.00497821095632	0.5	object	natural	1	0.4420762550435029
79.50497001898475	0.5	object	natural	1	0.9060802059830166
81.0049423709861	0.5	object	natural	1	0.4991107489913702
82.5049177359906	0.5	object	manmade	1	0.47313385299639776
84.00489991198992	0.5	object	manmade	1	0.50815245998092
85.50487907096976	0.5	object	manmade	1	0.6831728760153055
87.00485836795997	0.5	object	manmade	1	0.574195547029376
103.50463916896842	0.5	object	natural	1	0.48541250702692196
105.00462781399256	0.5	object	manmade	1	0.5104244769900106
106.50459836400114	0.5	object	natural	1	0.5214571799733676
108.00457737699617	0.5	object	manmade	1	0.6854778859997168
109.50457085698145	0.5	object	manmade	1	0.480485679989215
111.00453626399394	0.5	object	manmade	1	0.6215215579723008
112.50451673899079	0.5	object	natural	n/a	n/a
114.00449883798137	0.5	object	natural	1	0.6355582320247777
115.50447859597625	0.5	object	manmade	1	0.5895777060068212
117.00445863197092	0.5	object	natural	1	0.6785901089897379
133.5042378809885	0.5	face	female	1	0.39581717300461605
135.0042196289869	0.5	face	female	1	0.39885111700277776
136.5042068309849	0.5	face	male	1	0.33485122898127884
138.00417621299857	0.5	face	female	1	0.463883125979919
139.50416519900318	0.5	face	male	1	0.4238969459547661
141.0041358989547	0.5	face	female	1	0.42992576403776184
142.50411645398708	0.5	face	male	1	0.41894607397262007
144.0041031820001	0.5	face	female	1	0.3629528029705398
145.50407721998636	0.5	face	male	1	0.40697898296639323
147.00405959197087	0.5	face	male	1	0.37400558503577486
163.50383910199162	0.5	scene	outdoor	1	0.41922200500266626
165.0038156969822	0.5	scene	indoor	1	0.5552508260007016
166.5037965659867	0.5	scene	indoor	1	0.5812639399664477
168.00378280197037	0.5	scene	outdoor	1	0.4822840180131607
169.50375387299573	0.5	scene	indoor	1	0.5123139659990557
171.00376322498778	0.5	scene	outdoor	1	0.46430506801698357
172.50371291098418	0.5	scene	indoor	1	0.7272664229967631
174.00369555095676	0.5	scene	indoor	1	0.5282971770502627
175.50367783696856	0.5	scene	outdoor	1	0.5053845490328968
177.00365537998732	0.5	scene	outdoor	1	0.6194041419657879
193.50343280198285	0.5	face	male	1	0.36463824001839384
195.003415544983	0.5	face	male	1	0.3296509889769368
196.50339706998784	0.5	face	female	1	0.4726664039772004
198.00337495299755	0.5	face	male	1	0.45969463500659913
199.50335129798623	0.5	face	female	0	0.5227165329852141
201.00333004299318	0.5	face	female	0	0.35073946201009676
202.50330968596973	0.5	face	male	1	0.36675270600244403
204.00329190999037	0.5	face	female	1	0.4557743020122871
205.50328802899458	0.5	face	female	1	0.45277427800465375
207.00325757800601	0.5	face	male	1	0.5187491659889929
223.50303071999224	0.5	scene	outdoor	1	0.4229964349651709
225.00300932995742	0.5	scene	outdoor	1	0.4040646140347235
226.50298880500486	0.5	scene	outdoor	1	0.47707924200221896
228.00297129998216	0.5	scene	outdoor	1	0.3961026699980721
229.50295953900786	0.5	scene	indoor	0	0.5440455319476314
231.0029379859916	0.5	scene	indoor	1	0.4711359270149842
232.50293830997543	0.5	scene	outdoor	1	0.5421346839866601
234.00289984297706	0.5	scene	indoor	1	0.5981695519876666
235.5028782619629	0.5	scene	indoor	1	0.5281893039937131
237.00285126798553	0.5	scene	indoor	1	0.7762193229864351
253.50262961100088	0.5	scene	indoor	1	0.5144483229960315
255.00261917099124	0.5	scene	indoor	1	0.46345181501237676
256.5025941240019	0.5	scene	indoor	1	0.4404807479586452
258.0025759449927	0.5	scene	outdoor	0	0.4284985449630767
259.5025500159827	0.5	scene	outdoor	1	0.3565266350051388
261.0025352649973	0.5	scene	outdoor	1	0.4285418009967543
262.50251586997183	0.5	scene	indoor	1	0.5054941949783824
264.0024963899632	0.5	scene	outdoor	1	0.466595727019012
265.5024748899741	0.5	scene	outdoor	1	0.582607090997044
267.00245704798726	0.5	scene	indoor	1	0.48761543701402843
283.50223625299986	0.5	object	natural	1	0.5488373239641078
285.00220183300553	0.5	object	natural	1	0.5169013319537044
286.5021811799961	0.5	object	natural	1	0.41289719101041555
288.00215981696965	0.5	object	natural	1	0.38791536999633536
289.4854649089975	0.5	object	manmade	1	0.5176312789553776
291.0021306689596	0.5	object	natural	1	0.5059811430401169
292.50210008595604	0.5	object	manmade	1	0.8139755160082132
294.00208177400054	0.5	object	manmade	1	0.5489942120038904
295.50206813099794	0.5	object	manmade	1	0.5880229710019194
297.0020480439998	0.5	object	manmade	1	0.8460455339518376
313.4851410649717	0.5	scene	outdoor	1	0.430913652991876
314.9851217069663	0.5	scene	indoor	1	0.485957948025316
316.4851047389675	0.5	scene	indoor	1	0.6649767700000666
317.98508054495323	0.5	scene	outdoor	1	0.557997445052024
319.4850610969588	0.5	scene	outdoor	1	0.5969384700292721
320.9850510759861	0.5	scene	indoor	1	0.6380311009706929
322.4850286360015	0.5	scene	indoor	1	0.5450473789824173
323.9850108649698	0.5	scene	outdoor	0	0.815081704990007
325.4849891339545	0.5	scene	indoor	1	0.684104077052325
326.9849655389553	0.5	scene	outdoor	1	0.733114053029567
343.484754539968	0.5	object	natural	1	0.4993247360107489
344.9847350019845	0.5	object	manmade	1	0.4743501499760896
346.4847057329607	0.5	object	manmade	1	0.5563845169963315
347.9846803629771	0.5	object	natural	1	0.5214055000105873
349.48467285500374	0.5	object	manmade	1	0.559377092984505
350.9846454329672	0.5	object	natural	1	0.5994332919945009
352.48462921596365	0.5	object	manmade	1	0.5404566189972684
353.9846033589565	0.5	object	natural	0	0.5154914199956693
355.4845863030059	0.5	object	manmade	1	0.4955009729601443
356.9845593589707	0.5	object	natural	1	0.7625254390295595
373.48434689699207	0.5	scene	indoor	1	0.4797431679908186
374.9843357600039	0.5	scene	outdoor	1	0.5297506239730865
376.4843034579535	0.5	scene	outdoor	1	0.4987832170445472
377.9842849629931	0.5	scene	indoor	1	0.5898122349753976
379.48426433396526	0.5	scene	outdoor	1	0.6438285710173659
380.9842402479844	0.5	scene	outdoor	1	0.63685018196702
382.4842243519961	0.5	scene	indoor	1	0.595863759983331
383.9842050320003	0.5	scene	indoor	1	0.5858262889669277
385.4841830699588	0.5	scene	outdoor	1	0.42990675201872364
386.9841600409709	0.5	scene	indoor	1	0.5649311150191352
403.4839374209987	0.5	face	male	1	0.4211504099657759
404.98786654596915	0.5	face	male	1	0.3592304810299538
406.4838973049773	0.5	face	female	1	0.4231611450086348
407.9838769159978	0.5	face	female	1	0.4942166249966249
409.4838747860049	0.5	face	female	1	0.5322153509478085
410.9838436849532	0.5	face	female	1	0.4842521420214325
412.48381809698185	0.5	face	male	1	0.407275504025165
413.9838011979591	0.5	face	male	1	0.5482942230300978
415.4838044469943	0.5	face	male	1	0.38622465496882796
416.9837600449682	0.5	face	female	1	0.7123305490240455
433.48353767197113	0.5	object	natural	1	0.506565040035639
434.98773977399105	0.5	object	natural	1	0.4213522360078059
436.4834958270076	0.5	object	natural	1	0.4226020829519257
437.98347268800717	0.5	object	natural	1	0.4016240449855104
439.4834534410038	0.5	object	manmade	1	0.5126134409802034
440.98343264800496	0.5	object	natural	1	0.5096666079480201
442.48341370897833	0.5	object	manmade	1	0.5607178729842417
443.98340177495265	0.5	object	manmade	1	0.6076927510439418
445.4833728959784	0.5	object	manmade	1	0.5527375329984352
446.9833551449701	0.5	object	manmade	1	0.6187472129822709
