onset	duration	trial_type	subcategory	response_accuracy	response_time
13.505795484990813	0.5	face	male	1	0.5858332150382921
15.005779248022009	0.5	face	male	1	0.5228535499772988
16.50575770501746	0.5	face	female	1	0.4228727759909816
18.00573600200005	0.5	face	male	1	0.5388964589801617
19.505724250979256	0.5	face	female	1	0.5909087620093487
21.00569506100146	0.5	face	male	1	0.6169393630116247
22.505717610998545	0.5	face	female	1	0.657832401979249
24.005654287000652	0.5	face	male	1	0.6359767619869672
25.505635528010316	0.5	face	female	1	0.6019927919842303
27.005614812020212	0.5	face	female	n/a	n/a
43.50539285602281	0.5	object	manmade	1	0.5862445629900321
45.005383646988776	0.5	object	natural	1	0.5442500300123356
46.5053631439805	0.5	object	manmade	1	0.658271323016379
48.00533244601684	0.5	object	natural	1	0.5833282849634998
49.50531330402009	0.5	object	manmade	1	0.5883212279877625
51.00529113999801	0.5	object	manmade	1	0.7573453970253468
52.50530846702168	0.5	object	natural	1	0.599329772987403
54.00525094103068	0.5	object	manmade	1	0.533386189956218
55.50522988999728	0.5	object	natural	1	0.6164052269887179
57.00520916102687	0.5	object	natural	1	0.5754238779773004
73.50498669402441	0.5	object	manmade	1	0.6206507789902389
75.00497450999683	0.5	object	manmade	1	0.5986642339848913
76.504954603035	0.5	object	natural	1	0.5816854239674285
78.00493177701719	0.5	object	natural	1	0.5457058449974284
79.50490582903149	0.5	object	natural	1	0.5027444379520603
81.0048914810177	0.5	object	manmade	1	0.5866759039927274
82.50490926002385	0.5	object	manmade	1	0.5037446559872478
84.00485582201509	0.5	object	manmade	1	0.5817867260193452
85.50482681300491	0.5	object	natural	1	0.520812051021494
87.00480790098663	0.5	object	natural	1	0.5058343400014564
103.50458527903538	0.5	object	manmade	1	0.704056505986955
105.00455857499037	0.5	object	manmade	1	0.5970062619890086
106.50454679701943	0.5	object	natural	1	0.5790929289651103
108.00452203099849	0.5	object	natural	1	0.5371155830216594
109.50451735802926	0.5	object	manmade	1	0.6471313399961218
111.00447955698473	0.5	object	natural	1	0.5221610610024072
112.5044798500021	0.5	object	manmade	1	0.6141631689970382
114.0044441909995	0.5	object	manmade	1	0.5691959080286324
115.50442083802773	0.5	object	natural	1	0.5542249309946783
117.00439903698862	0.5	object	natural	1	0.5652458629920147
133.50417601899244	0.5	scene	outdoor	1	0.6384921669960022
135.00415087700821	0.5	scene	outdoor	1	0.4985145619721152
136.5041394639993	0.5	scene	outdoor	1	0.5195051620248705
138.00411358103156	0.5	scene	indoor	1	0.4455410759546794
139.50409437099006	0.5	scene	outdoor	1	0.576549299992621
141.00407668598928	0.5	scene	outdoor	1	0.50856946001295
142.50409483799012	0.5	scene	indoor	1	0.5675505200051703
144.00403524603462	0.5	scene	indoor	1	0.6706107529462315
145.5040204130346	0.5	scene	indoor	1	0.4936246269498952
147.00399250199553	0.5	scene	indoor	1	0.7506475150003098
163.503770343028	0.5	face	female	1	0.6298761519719847
165.0037502030027	0.5	face	male	1	0.501898608985357
166.5037406780175	0.5	face	male	1	0.5929132659803145
168.0037092710263	0.5	face	male	1	0.45594360295217484
169.50369714398403	0.5	face	female	1	0.5029613460064866
171.00366542098345	0.5	face	male	1	0.5419844100251794
172.5036851540208	0.5	face	female	1	0.5209028290119022
174.00363686098717	0.5	face	female	1	0.475014335999731
175.50361460703425	0.5	face	female	1	0.48603295197244734
177.00358494598186	0.5	face	male	1	0.5639858560170978
193.50336527102627	0.5	face	male	1	0.6962912089657038
195.0033402640256	0.5	face	male	1	0.6042339829728007
196.50332137802616	0.5	face	female	1	0.45335690496722236
198.00330297998153	0.5	face	female	1	0.537347371049691
199.5032904400141	0.5	face	male	1	0.6043652839725837
201.00325896497816	0.5	face	male	1	0.5023967880406417
202.50327031500638	0.5	face	female	1	0.6803820970235392
204.00321987702046	0.5	face	female	1	0.52143459697254
205.50319787301123	0.5	face	female	1	0.45445845898939297
207.00317912199534	0.5	face	male	1	0.5464779160101898
223.5029556369991	0.5	object	natural	1	0.6676983759971336
225.00294700899394	0.5	object	natural	1	0.691708151018247
226.50292490998982	0.5	object	manmade	1	0.585729185026139
228.00289439002518	0.5	object	manmade	1	0.6387643929920159
229.50288554601138	0.5	object	manmade	1	0.6117696010041982
231.00285157200415	0.5	object	manmade	1	0.5478029189980589
232.50287323398516	0.5	object	natural	1	0.47678550600539893
234.00281490001362	0.5	object	natural	1	0.542846032010857
235.50280167598976	0.5	object	manmade	1	0.5568555060308427
237.00277219503187	0.5	object	natural	1	0.6428831579978578
253.5025539509952	0.5	scene	outdoor	1	0.5061049350188114
255.00253867398715	0.5	scene	indoor	1	0.5981230280012824
256.50250862998655	0.5	scene	indoor	1	0.9421502000186592
258.0024858590332	0.5	scene	outdoor	1	0.6571787529974245
259.50246590800816	0.5	scene	indoor	1	0.6341954990057275
260.98576455103466	0.5	scene	outdoor	1	0.6629072189680301
262.48575068300124	0.5	scene	outdoor	1	0.5699273700010963
263.98572602903005	0.5	scene	indoor	1	0.5809385559987277
265.4857090720325	0.5	scene	indoor	1	0.5679514289950021
266.9856906760251	0.5	scene	outdoor	1	0.5329733020043932
283.4854688619962	0.5	scene	outdoor	1	0.5131989090004936
284.9854505149997	0.5	scene	indoor	1	0.5712355150026269
286.4854359970195	0.5	scene	indoor	1	0.5592275289818645
287.9854075820185	0.5	scene	outdoor	1	0.6812622299767099
289.48539217200596	0.5	scene	outdoor	1	0.5662750190240331
290.98536480398616	0.5	scene	outdoor	1	0.5992996160057373
292.48535798402736	0.5	scene	indoor	1	0.6673095430014655
293.98532669601263	0.5	scene	indoor	1	0.5333397869835608
295.4853059030138	0.5	scene	indoor	1	0.5983568939846009
296.98529180599144	0.5	scene	outdoor	1	0.49337731901323423
313.4850608879933	0.5	scene	indoor	1	0.6366099580191076
314.9850488009979	0.5	scene	indoor	1	0.5806187359848991
316.4850314690266	0.5	scene	outdoor	1	0.5156413739896379
317.9850014420226	0.5	scene	outdoor	1	0.5436685219756328
319.48498906200984	0.5	scene	outdoor	1	0.5406811810098588
320.9849644820206	0.5	scene	indoor	1	0.5797071320121177
322.4849698760081	0.5	scene	indoor	1	0.5317017849883996
323.98492592200637	0.5	scene	outdoor	1	0.5467412730213255
325.4849015100044	0.5	scene	outdoor	1	0.7397673850064166
326.9848825490335	0.5	scene	indoor	1	0.5367968049831688
343.4846711040009	0.5	object	manmade	1	0.6449986440129578
344.9846426360309	0.5	object	natural	1	0.5540304249734618
346.4846178549924	0.5	object	manmade	1	0.5640526179922745
347.9845929919975	0.5	object	manmade	1	0.545077613031026
349.4845949320006	0.5	object	natural	1	0.5490816190140322
350.9845599660184	0.5	object	manmade	1	0.5511108339997008
352.4845603579888	0.5	object	natural	1	0.5181145170354284
353.984513383999	0.5	object	natural	1	0.5731637220014818
355.48450311500346	0.5	object	manmade	1	0.5501767449895851
356.984474656987	0.5	object	natural	1	0.5552022270276211
373.4842475330224	0.5	face	female	1	0.6124281079974025
374.98877984000137	0.5	face	female	1	0.4878935180022381
376.48421209899243	0.5	face	male	1	0.6054619229980744
377.9841876440332	0.5	face	male	1	0.7044862089678645
379.4841977080214	0.5	face	male	1	0.5684806460049003
380.984151503013	0.5	face	male	1	0.5205278709763661
382.4841648269794	0.5	face	female	1	0.5645077750086784
383.9841044479981	0.5	face	male	1	0.5655727339908481
385.4840837640222	0.5	face	female	1	0.5585965529899113
386.98406549502397	0.5	face	female	1	0.5166122720111161
403.4838410600205	0.5	face	female	1	0.6688420829595998
404.9866534519824	0.5	face	female	1	0.42702531605027616
406.48380306200124	0.5	face	male	1	0.502885268011596
407.98377889802214	0.5	face	female	1	0.5178992499713786
409.4837734629982	0.5	face	male	1	0.5929345089825802
410.9837398399832	0.5	face	male	1	0.5419377890066244
412.48375654098345	0.5	face	male	1	0.4989331960096024
413.9837025210145	0.5	face	male	1	0.5039770050207153
415.48367858701386	0.5	face	female	1	0.515006169967819
416.983661870996	0.5	face	female	1	0.5270202860119753
433.4834314819891	0.5	scene	outdoor	1	0.5922504020272754
434.98554036801215	0.5	scene	indoor	1	0.5271518750232644
436.4833905969863	0.5	scene	indoor	1	0.607292264001444
437.98337069997797	0.5	scene	outdoor	1	0.5853158620302565
439.48335212498205	0.5	scene	outdoor	1	0.5343287230352871
440.9833402860095	0.5	scene	outdoor	1	0.5073473840020597
442.4833193329978	0.5	scene	indoor	1	0.5473601880366914
443.98328999301884	0.5	scene	outdoor	1	0.55742253101198
445.4832688560127	0.5	scene	indoor	1	0.5514124570181593
446.98325690999627	0.5	scene	indoor	1	0.5644269949989393
