onset	duration	trial_type	subcategory	response_accuracy	response_time
13.506840653019026	0.5	scene	indoor	1	0.6548223400022835
15.00681751803495	0.5	scene	outdoor	1	0.5958374568726867
16.50745324906893	0.5	scene	outdoor	1	0.6552044139243662
18.006778540089726	0.5	scene	indoor	1	0.8748868179973215
19.506758936913684	0.5	scene	outdoor	1	0.5388964910525829
21.006749165942892	0.5	scene	indoor	1	0.6438992470502853
22.50671724998392	0.5	scene	outdoor	1	0.6439398520160466
24.006707051070407	0.5	scene	outdoor	1	0.5569580330047756
25.506690206937492	0.5	scene	indoor	0	0.8139692631084472
27.006659508915618	0.5	scene	indoor	1	0.6899995929561555
43.50645559607074	0.5	object	natural	1	0.9322153360117227
45.0064215939492	0.5	object	natural	1	0.6552490890026093
46.50641339691356	0.5	object	natural	1	0.7171710659749806
48.006384273059666	0.5	object	manmade	1	0.9052777888718992
49.50639242702164	0.5	object	manmade	0	0.9712723849806935
51.00634783599526	0.5	object	manmade	1	0.9133202729281038
52.506320693995804	0.5	object	manmade	1	0.7023510469589382
54.00630208104849	0.5	object	manmade	1	0.5803664629347622
55.50628260103986	0.5	object	natural	1	0.8083866308443248
57.00626389589161	0.5	object	natural	1	0.636399009032175
73.5060448020231	0.5	scene	indoor	1	0.5596202730666846
75.00602598092519	0.5	scene	indoor	1	0.6326374709606171
76.50601572101004	0.5	scene	indoor	1	0.6686556299682707
78.00598686002195	0.5	scene	outdoor	1	0.5866827128920704
79.50597424898297	0.5	scene	indoor	1	0.6306972280144691
81.00594785693102	0.5	scene	outdoor	1	0.5376615840941668
82.50593821587972	0.5	scene	indoor	1	0.5377338281832635
84.00590786198154	0.5	scene	outdoor	1	0.49776222091168165
85.50588485808112	0.5	scene	outdoor	1	0.4237832718063146
87.00586373102851	0.5	scene	outdoor	1	0.4928010308649391
103.50563970091753	0.5	object	manmade	1	0.7150309870485216
105.0056288309861	0.5	object	natural	1	0.7390428690705448
106.5056142299436	0.5	object	manmade	1	0.6100563830696046
108.00558793591335	0.5	object	natural	1	0.6900915070436895
109.5055672780145	0.5	object	natural	1	0.6851017470471561
111.00555044901557	0.5	object	manmade	1	0.585121592041105
112.50553394388407	0.5	object	manmade	1	0.6821387631352991
114.00550530292094	0.5	object	manmade	1	0.6791714250575751
115.50548658287153	0.5	object	natural	1	0.6291887911502272
117.00547671597451	0.5	object	natural	1	0.5741952939424664
133.5052569808904	0.5	scene	outdoor	0	0.8184186571743339
135.00522753596306	0.5	scene	outdoor	1	0.543374635046348
136.50520551390946	0.5	scene	outdoor	1	0.6294703329913318
138.00518663297407	0.5	scene	outdoor	1	0.5104933120310307
139.50516866403632	0.5	scene	indoor	1	0.6465067288372666
141.00515593588352	0.5	scene	indoor	1	0.6305183100048453
142.50512559898198	0.5	scene	indoor	1	0.6835525829810649
144.005104807904	0.5	scene	indoor	1	0.6785904120188206
145.5050880170893	0.5	scene	indoor	1	0.7515911639202386
147.00507948105223	0.5	scene	outdoor	1	0.6565940140280873
163.50484978104942	0.5	object	natural	1	0.5818283008411527
165.00482559390366	0.5	object	natural	1	0.8648581779561937
166.50480748689733	0.5	object	natural	1	0.566869743168354
168.00478507508524	0.5	object	natural	1	0.7888929687906057
169.50476800301112	0.5	object	manmade	1	0.637909177923575
171.0047538310755	0.5	object	manmade	0	0.8729280268307775
172.50472374493256	0.5	object	manmade	1	0.7739615880418569
174.00470403092913	0.5	object	manmade	1	0.7509756309445947
175.50469646090642	0.5	object	natural	1	0.5929817729629576
177.0046668429859	0.5	object	manmade	0	0.8100103079341352
193.50445582903922	0.5	object	natural	1	0.5672271279618144
195.00442426395603	0.5	object	natural	1	0.5352579900063574
196.50440426007845	0.5	object	natural	1	0.6662761149927974
198.00438553397544	0.5	object	manmade	1	0.6643005490768701
199.50436547002755	0.5	object	manmade	n/a	n/a
201.00435260892846	0.5	object	manmade	0	0.5033272949513048
202.50433345488273	0.5	object	natural	1	0.6133477310650051
204.00431330990978	0.5	object	manmade	1	0.6673672101460397
205.50429341895506	0.5	object	natural	1	0.7433935729786754
207.00426573609002	0.5	object	manmade	1	0.6804235379677266
223.50404761708342	0.5	scene	outdoor	1	0.557626066962257
225.00402239500545	0.5	scene	indoor	1	0.9526618670206517
226.50401210808195	0.5	scene	indoor	1	0.7456727679818869
228.0039820189122	0.5	scene	outdoor	1	0.5347154610790312
229.50396773405373	0.5	scene	indoor	1	0.707718790974468
231.00394268496893	0.5	scene	outdoor	1	0.7677408510353416
232.5039302050136	0.5	scene	outdoor	0	0.7326799018774182
234.00389996287413	0.5	scene	indoor	1	0.650790031068027
235.50389511091635	0.5	scene	outdoor	1	0.6407924890518188
237.00386191206053	0.5	scene	indoor	1	0.9298217929899693
253.50364044005983	0.5	face	female	1	0.517050702823326
255.00362083199434	0.5	face	male	1	0.46107008098624647
256.50360055989586	0.5	face	female	1	0.5370912570506334
258.00359286391176	0.5	face	male	1	0.48909677704796195
259.4868839918636	0.5	face	female	1	0.577805700013414
260.98686862690374	0.5	face	male	1	0.7528280441183597
262.4868475180119	0.5	face	female	1	0.534842595923692
263.9868278398644	0.5	face	male	1	0.6608757821377367
265.4868009609636	0.5	face	female	0	0.6798931409139186
266.9867787929252	0.5	face	male	1	0.8439121800474823
283.48657104186714	0.5	face	female	1	0.5141227571293712
284.98655048408546	0.5	face	male	0	0.5071553390007466
286.48653606697917	0.5	face	male	1	0.653154982952401
287.9865062730387	0.5	face	male	1	0.6831866840366274
289.486486003967	0.5	face	female	1	0.5852171198930591
290.98646580195054	0.5	face	female	1	0.638164154952392
292.4864432378672	0.5	face	male	1	0.699265159200877
293.98643353092484	0.5	face	male	1	0.504263058071956
295.48640615097247	0.5	face	female	1	0.5812846629414707
296.9863976528868	0.5	face	female	1	0.5143004930578172
313.486173678888	0.5	face	male	1	0.563522128155455
314.98614891595207	0.5	face	female	1	0.5445697219111025
316.48612471390516	0.5	face	female	1	0.6185781240928918
317.9861091088969	0.5	face	female	1	0.7095919160638005
319.48609910695814	0.5	face	male	1	0.6596032311208546
320.9860787149519	0.5	face	male	1	0.658619750989601
322.4860501619987	0.5	face	female	1	0.6176479880232364
323.98603074392304	0.5	face	male	1	0.5635939461644739
325.4860106129199	0.5	face	male	1	0.5516880799550563
326.9859956910368	0.5	face	female	1	0.6676237659994513
343.4857704900205	0.5	object	natural	n/a	n/a
344.9857467759866	0.5	object	natural	1	0.6649597079958767
346.4905072019901	0.5	object	manmade	1	0.7011960109230131
347.9857155380305	0.5	object	natural	0	0.8479914248455316
349.4856904009357	0.5	object	manmade	1	0.7169416539836675
350.985681808088	0.5	object	natural	1	0.6230224198661745
352.485646774061	0.5	object	natural	1	0.5590569889172912
353.9856256048661	0.5	object	manmade	1	0.7351005920208991
355.48560507199727	0.5	object	manmade	1	0.7111005499027669
356.9855848469306	0.5	object	manmade	1	0.606115308124572
373.4853618990164	0.5	face	male	1	0.4873363929800689
374.9853428869974	0.5	face	male	1	0.41536164190620184
376.4891248559579	0.5	face	male	1	0.42858300590887666
377.98530210205354	0.5	face	female	0	0.5784000859130174
379.48529267986305	0.5	face	female	1	0.7503999250475317
380.98526915488765	0.5	face	male	1	0.5314387499820441
382.48524059401825	0.5	face	female	1	0.64246816188097
383.98522570100613	0.5	face	male	1	0.6324818930588663
385.4852035010699	0.5	face	female	1	0.662506029009819
386.9851999829989	0.5	face	female	1	0.5865081909578294
403.4849669500254	0.5	face	male	1	0.6437529758550227
404.9879076180514	0.5	face	female	1	0.705807302845642
406.4849202919286	0.5	face	female	1	0.653757288120687
407.98490134603344	0.5	face	male	1	0.6837733099237084
409.4848796299193	0.5	face	male	1	0.7148422810714692
410.98487864108756	0.5	face	male	1	0.6928302168380469
412.48484218888916	0.5	face	male	0	0.932878184132278
413.9848211770877	0.5	face	female	1	0.6478899067733437
415.4847992488649	0.5	face	female	1	0.6579070820007473
416.9847874599509	0.5	face	female	1	0.6039287790190428
433.48455718299374	0.5	scene	outdoor	1	0.5381547699216753
434.9857767059002	0.5	scene	indoor	1	0.6629396199714392
436.4845198439434	0.5	scene	indoor	1	0.7451985110528767
437.9844980959315	0.5	scene	indoor	0	0.7422214441467077
439.48447782103904	0.5	scene	outdoor	1	0.6022361309733242
440.9844615638722	0.5	scene	indoor	1	0.7992654361296445
442.48443647497334	0.5	scene	indoor	1	0.6312780680600554
443.98441744595766	0.5	scene	outdoor	1	0.5602936909999698
445.48440686799586	0.5	scene	outdoor	1	0.6383067220449448
446.98437752295285	0.5	scene	outdoor	1	0.5863366709090769
