onset	duration	trial_type	condition	response_accuracy	response_time
13.499136651866136	2.5	A	nonviolation	1	0.940941512119025
16.499093391001225	2.5	B	violation	0	1.4889843720011413
19.49906364898197	2.5	B	nonviolation	1	1.6540293160360309
22.499017786001787	2.5	B	violation	1	1.2609973200596871
25.498984029050924	2.5	B	violation	0	1.8430965698789803
28.49894029693678	2.5	A	nonviolation	1	0.90014030598104
31.498901840066534	2.5	A	nonviolation	1	1.0371811587829145
34.498871369054534	2.5	A	violation	1	1.1612169640138743
37.49882604484446	2.5	B	nonviolation	0	1.3812586460262537
40.49880159785971	2.5	A	violation	1	1.1872505501378328
43.49874831689522	2.5	B	nonviolation	1	1.2353362010326236
46.49870516103692	2.5	B	nonviolation	0	1.538365741027519
49.49866996495985	2.5	B	nonviolation	0	1.3114103660918772
52.49864114983938	2.5	B	violation	1	1.4424457100685686
55.49859635089524	2.5	A	violation	1	1.0334135990124196
58.49855236290023	2.5	A	violation	1	0.9825363920535892
61.49850831506774	2.5	B	violation	0	1.5345723978243768
64.49846912897192	2.5	B	violation	1	1.56862277793698
67.4984274089802	2.5	B	violation	0	1.4436600629705936
70.49839524785057	2.5	A	nonviolation	1	0.9116949730087072
73.49836300686002	2.5	A	nonviolation	1	0.6947089941240847
76.49832584406248	2.5	B	nonviolation	1	1.3877618829719722
79.49827892286703	2.5	A	nonviolation	1	0.7658083189744502
82.4982455968857	2.5	A	nonviolation	1	1.47185606113635
85.49820405803621	2.5	B	violation	0	1.7088818799238652
88.49815641297026	2.5	B	nonviolation	1	1.5319301090203226
91.49811701895668	2.5	A	violation	1	1.0659507480449977
94.49807333503851	2.5	A	nonviolation	1	0.7430219408124685
97.49804648687132	2.5	B	nonviolation	0	0.9970456541050224
100.49799970001915	2.5	A	violation	1	1.054098604945466
103.49797156685965	2.5	A	nonviolation	1	0.7481062200386077
106.49792951601557	2.5	A	nonviolation	1	0.61016381601803
109.49787946790457	2.5	B	nonviolation	0	1.2952096320223063
112.49784948001616	2.5	B	nonviolation	1	1.5422399018425494
115.49780291295609	2.5	A	violation	1	1.3042989131063225
118.49776339903472	2.5	B	violation	0	1.2863341439515352
121.49772855406627	2.5	B	violation	1	1.462366755818948
124.49767482187599	2.5	B	nonviolation	0	1.7724212650209663
127.49764456087723	2.5	A	violation	1	1.1634510899893942
130.4975922119338	2.5	A	violation	1	0.8295050109736621
133.49755751993507	2.5	B	nonviolation	1	1.6275412559043616
136.4975306398701	2.5	B	violation	1	1.3145672231912613
139.4974713260308	2.5	A	violation	1	1.1286274488084018
142.49743650783785	2.5	A	violation	1	0.6696520380210131
145.49739181087352	2.5	A	nonviolation	1	0.6357034870889038
148.49736131192185	2.5	A	nonviolation	1	0.8077362871263176
151.49731302587315	2.5	A	violation	1	0.9247844840865582
154.49727190798149	2.5	B	violation	1	1.076806912897155
157.49723302503114	2.5	A	violation	1	1.0818635160103443
160.49719506688416	2.5	B	violation	1	1.2739038860891014
163.49716001190245	2.5	A	nonviolation	1	2.246933331945911
166.4971124450676	2.5	A	violation	1	0.6949872127734125
169.49707409087569	2.5	B	nonviolation	1	1.1750307001639158
172.49703420093286	2.5	B	violation	1	0.7370702559128404
175.49698797706517	2.5	A	nonviolation	1	0.9591145038139076
178.49694794206883	2.5	B	nonviolation	0	1.1931535759940743
181.49691689596511	2.5	B	nonviolation	0	1.8611811751034109
184.49686638894488	2.5	B	violation	1	1.5062493190634996
187.49683522898704	2.5	A	nonviolation	1	0.8732770390342921
190.49678420787683	2.5	B	violation	1	1.2673213840462267
193.49674454587512	2.5	A	violation	1	0.6393542741425335
196.49670268292542	2.5	B	violation	0	1.5533984540961685
199.49666670593436	2.5	B	violation	0	1.5764404840301722
202.4966288178693	2.5	B	violation	1	0.7253960950765759
205.49658609600738	2.5	B	nonviolation	1	1.352515858830884
208.49655381706543	2.5	A	nonviolation	1	1.3125508138909936
211.496508623939	2.5	A	violation	1	0.9215976300183684
214.4964613399934	2.5	B	nonviolation	1	1.7416407659184188
217.49642027891238	2.5	A	violation	1	0.6896851661149412
220.4963841389399	2.5	B	nonviolation	1	0.9107199290301652
223.4963373460341	2.5	B	nonviolation	0	1.4187660028692335
226.49630382703617	2.5	A	violation	1	1.4228009500075132
229.49625790701248	2.5	A	nonviolation	1	1.0367776888888331
232.49621978285717	2.5	A	violation	1	1.3558884810190648
235.49617783585563	2.5	B	violation	0	1.6149300159886482
238.4961360129528	2.5	B	nonviolation	1	1.398973026080057
241.49610608303917	2.5	B	violation	0	1.0800001160241663
244.49605539091863	2.5	B	violation	0	1.9240588389802724
247.49601515498944	2.5	A	violation	1	1.2200114750303328
250.49597333185372	2.5	A	violation	1	0.6401359380688518
253.495932000922	2.5	A	nonviolation	1	0.9331785701215268
256.4958913109731	2.5	A	nonviolation	1	0.9262195129413158
259.49585066898726	2.5	A	nonviolation	1	1.0072718758601695
262.4958111520391	2.5	A	violation	1	0.7073067289311439
265.49577544792555	2.5	B	nonviolation	0	1.5072806579992175
268.49573438684456	2.5	A	violation	1	0.9213773461524396
271.4956911560148	2.5	A	nonviolation	1	0.9914240059442818
274.49564762692904	2.5	B	violation	0	1.5284643340855837
277.49560699495487	2.5	B	nonviolation	1	1.5115068349987268
280.4955663550645	2.5	A	nonviolation	1	0.6105428067967296
283.4955257908441	2.5	B	nonviolation	1	1.307602829998359
286.49548979802057	2.5	B	violation	1	0.8436267089564353
289.4954429760109	2.5	A	violation	1	0.7506034958641976
292.49540552403784	2.5	A	nonviolation	1	0.6307114178780466
295.4953614110127	2.5	A	nonviolation	1	1.5897525900509208
298.49532547290437	2.5	B	nonviolation	1	0.975795929087326
301.4952844630461	2.5	B	nonviolation	0	1.0988296859432012
304.49525124393404	2.5	A	nonviolation	1	0.918864340055734
307.49520578305237	2.5	B	violation	0	1.0459151398390532
310.49517098488286	2.5	B	violation	1	1.653943702112883
313.4951286590658	2.5	B	nonviolation	0	1.4949940268415958
316.49507740791887	2.5	A	nonviolation	1	0.9960417470429092
319.49504816392437	2.5	A	violation	1	0.674066754989326
322.4950006979052	2.5	A	nonviolation	1	1.038122553145513
325.4949554670602	2.5	A	violation	1	1.4541613168548793
328.4949190500193	2.5	A	nonviolation	1	1.0442032678984106
331.4948856260162	2.5	A	violation	1	0.6802284028381109
334.4948326179292	2.5	A	violation	1	0.8762928519863635
337.4948028179351	2.5	A	nonviolation	1	0.7053139910567552
340.494754306972	2.5	A	nonviolation	1	1.4623686440754682
343.4947102030273	2.5	A	violation	1	0.7964139520190656
346.4946688320488	2.5	B	violation	1	2.217454501893372
349.49464295897627	2.5	A	nonviolation	1	1.0715125340502711
352.49459478887735	2.5	A	violation	1	0.8115256479941308
355.4945476548746	2.5	A	nonviolation	1	1.0636071350891143
358.4945073740091	2.5	B	nonviolation	1	1.3006187330465764
361.494476553984	2.5	B	violation	1	1.5486491550691426
364.49442534102127	2.5	B	nonviolation	1	2.124699863838032
367.49439436802635	2.5	A	nonviolation	1	0.5747308169957249
370.494342271937	2.5	A	violation	1	1.0207879340741783
373.49430120387115	2.5	B	nonviolation	1	1.521825971081853
376.4942609078717	2.5	B	violation	1	1.6608628320973366
379.494228618918	2.5	A	violation	1	0.9699002399574964
382.49418381205766	2.5	B	violation	1	1.4679475380107758
385.4941440490074	2.5	B	violation	0	1.8129790590610355
388.4940975129138	2.5	A	violation	1	1.2540346710011363
391.4940622719005	2.5	B	nonviolation	0	1.1210688520222902
394.49402682995424	2.5	B	nonviolation	0	1.5520967689808458
397.4939712330232	2.5	B	nonviolation	1	1.9861551658250391
400.4939380919095	2.5	B	violation	1	0.9981903680600226
403.49390352005133	2.5	B	nonviolation	0	1.2162290648557246
406.49385373597033	2.5	B	violation	1	1.4352828320115805
409.49383970000775	2.5	B	nonviolation	1	1.0782908669207243
412.4937702610623	2.5	B	violation	1	1.4343585728202015
415.49372952105483	2.5	B	violation	1	0.9213208078872412
418.4936936339364	2.5	A	nonviolation	1	1.5134362881071866
421.4936481269542	2.5	B	nonviolation	1	0.5764803509227931
424.49360766797327	2.5	B	violation	0	1.2025274729821829
427.49357672501367	2.5	A	violation	1	1.0515557599719614
430.4935268668924	2.5	A	violation	1	0.8336095691192895
433.49348386400385	2.5	A	violation	1	0.6876428660470992
436.4934564079158	2.5	A	nonviolation	1	1.439676382113248
439.4934058838989	2.5	B	nonviolation	1	1.5017291910480708
442.476689331932	2.5	A	nonviolation	1	0.9514490289147944
445.4766506929882	2.5	A	nonviolation	1	0.9744841009378432
448.47661320795305	2.5	A	nonviolation	1	0.9515183370094746
451.476567172911	2.5	B	violation	0	1.5325593331363052
454.47652917797683	2.5	B	violation	1	0.974608134943992
457.4764896729029	2.5	A	nonviolation	1	0.7466497509740293
460.4764458008576	2.5	B	violation	1	0.8036918751895428
463.47640610090457	2.5	B	violation	1	1.1687305420637129
466.47636830387637	2.5	A	violation	1	0.8777616710867733
469.4763213009574	2.5	A	nonviolation	1	0.5778222880326211
472.4762773800176	2.5	B	violation	1	1.1268756848294288
475.4762392798439	2.5	B	violation	1	1.3038980700075626
478.4762001640629	2.5	A	nonviolation	1	1.3319397228769958
481.4761566899252	2.5	A	nonviolation	1	0.5959805680904537
484.4761253439356	2.5	A	nonviolation	1	0.6680150460451841
487.47608358901925	2.5	B	violation	0	1.3550591978710145
490.47603319189517	2.5	A	nonviolation	1	0.8871047061402351
493.4759958640208	2.5	A	violation	1	0.6731331390328705
496.47595443692984	2.5	A	nonviolation	1	0.5861837361007929
499.47591544897296	2.5	B	violation	0	1.93722667102702
502.4758868250065	2.5	A	violation	1	0.83825982385315
505.4758370749187	2.5	A	violation	1	0.5192491109482944
508.47580578597257	2.5	A	violation	1	0.6463321698829532
511.47574879601603	2.5	B	violation	1	1.1233954769559205
514.4757049409674	2.5	A	nonviolation	1	0.7473590690642595
517.4756656920072	2.5	B	nonviolation	1	0.7924779548775405
520.4756408969406	2.5	A	nonviolation	1	1.0965014500543475
523.4755889389198	2.5	B	nonviolation	1	1.4685570991132408
526.4755577440374	2.5	B	violation	1	2.0315834840293974
529.4755030989181	2.5	B	violation	0	0.8896428130101413
532.4755311359187	2.5	A	violation	0	1.0016104220412672
535.4754244158976	2.5	B	nonviolation	1	1.5157227229792625
538.4753886419348	2.5	B	nonviolation	0	1.4017549129202962
541.4753527659923	2.5	B	violation	1	1.6367955559398981
544.4753047209233	2.5	B	nonviolation	1	1.937837215140462
547.4752635848708	2.5	A	violation	1	0.8708831421099603
550.4752207319252	2.5	B	nonviolation	1	1.1369319250807166
553.4751760798972	2.5	B	nonviolation	1	1.1449836799874902
556.4751554990653	2.5	A	violation	1	1.1429915498010814
559.4751049820334	2.5	B	nonviolation	1	1.5110402279533446
562.4750668359919	2.5	A	nonviolation	1	1.1930816948879508
565.4750082569662	2.5	A	violation	1	0.9401432159356772
568.4749746269081	2.5	A	violation	1	0.7821801730897278
571.4749334158843	2.5	B	nonviolation	1	1.1522150170058012
574.4749001679012	2.5	B	nonviolation	0	1.2392512490041554
577.4748480019625	2.5	B	nonviolation	1	1.0053008059039712
580.4748067159671	2.5	B	nonviolation	1	1.0463472530245779
583.4747670888902	2.5	A	violation	1	0.8473861250095069
586.4747253109234	2.5	A	violation	1	0.8984316401183605
