onset	duration	trial_type	condition	repetition	pairmate	pairID	category	subcategory	response_accuracy	response_time
13.506891532975715	1	prelearning	violation	1	B	9	scene	indoor	1	0.7597205119673163
16.506857797969133	1	prelearning	violation	1	A	14	scene	outdoor	1	0.6447554560145363
19.506816596956927	1	prelearning	nonviolation	1	B	59	scene	indoor	1	0.6267901500104927
22.506792079948355	1	prelearning	nonviolation	1	A	63	scene	indoor	1	0.5618250130210072
25.506738597992808	1	prelearning	nonviolation	1	A	61	scene	outdoor	1	0.5417410539812408
28.506707627966534	1	prelearning	nonviolation	1	A	58	scene	outdoor	1	0.608905463013798
31.50666846195236	1	prelearning	nonviolation	1	B	61	scene	indoor	0	0.4949426090461202
34.50662265199935	1	prelearning	violation	1	A	15	scene	outdoor	1	0.5549930939450861
37.50659315095981	1	prelearning	nonviolation	1	B	58	scene	outdoor	1	0.5250209450023249
40.50655225495575	1	prelearning	nonviolation	1	A	57	scene	indoor	1	0.611065539997071
43.50651535496581	1	prelearning	violation	1	B	14	scene	outdoor	1	1.0400980369886383
46.506475677946575	1	prelearning	violation	1	A	12	scene	outdoor	1	0.5321364820119925
49.506428679975215	1	prelearning	nonviolation	1	B	57	scene	indoor	1	0.6011860020225868
52.50639836594928	1	prelearning	nonviolation	1	B	62	scene	indoor	1	0.8282210369943641
55.50636289699469	1	prelearning	violation	1	B	11	scene	outdoor	1	0.6702514129574411
58.506324695947114	1	prelearning	violation	1	A	9	scene	indoor	1	0.7032959680072963
61.50628151599085	1	prelearning	violation	1	B	13	scene	indoor	1	0.5733343290048651
64.50624494394287	1	prelearning	violation	1	B	16	scene	indoor	1	0.6523741470300592
67.50620615598746	1	prelearning	nonviolation	1	B	63	scene	outdoor	1	0.8824126879917458
70.50615761696827	1	prelearning	nonviolation	1	A	60	scene	outdoor	1	0.6134573119925335
73.50611882196972	1	prelearning	nonviolation	1	A	64	scene	indoor	1	0.8034998070215806
76.50608191394713	1	prelearning	violation	1	B	12	scene	indoor	1	0.7125368710258044
79.50604090397245	1	prelearning	violation	1	A	16	scene	indoor	1	0.6265772850019857
82.50600207899697	1	prelearning	nonviolation	1	B	64	scene	outdoor	1	0.7236190469702706
85.50596292794215	1	prelearning	violation	1	B	15	scene	outdoor	1	0.8256520280265249
88.5059306519688	1	prelearning	nonviolation	1	A	62	scene	outdoor	1	0.5046859430149198
91.5058885809849	1	prelearning	violation	1	A	10	scene	indoor	1	0.7687261470127851
94.50585136795416	1	prelearning	violation	1	A	11	scene	indoor	1	0.6227657180279493
97.50581382098608	1	prelearning	violation	1	B	10	scene	outdoor	1	0.7908474509604275
100.5058057399583	1	prelearning	nonviolation	1	A	59	scene	indoor	1	0.8386919740005396
103.5057310629636	1	prelearning	violation	1	A	13	scene	outdoor	1	0.7718894209829159
106.50568765198112	1	prelearning	nonviolation	1	B	60	scene	outdoor	1	0.8049378329887986
109.50564644794213	1	learning	nonviolation	2	A	57	scene	indoor	1	0.5999728280003183
112.50561169395223	1	learning	nonviolation	2	B	57	scene	indoor	1	0.8068950740271248
115.50557319395011	1	learning	nonviolation	2	A	58	scene	outdoor	1	0.5780487370211631
118.50553238898284	1	learning	nonviolation	2	B	58	scene	outdoor	1	0.7589475729619153
121.50549473497084	1	learning	nonviolation	2	A	59	scene	indoor	1	0.6341258119791746
124.50546251097694	1	learning	nonviolation	2	B	59	scene	indoor	1	0.6861606269958429
127.50540912995348	1	learning	nonviolation	3	A	57	scene	indoor	1	1.0052152860444041
130.5053764479817	1	learning	nonviolation	3	B	57	scene	indoor	1	0.7052476329845376
133.5053371389513	1	learning	violation	2	A	9	scene	indoor	1	0.7812890330096707
136.50530529895332	1	learning	violation	2	B	9	scene	indoor	1	0.7183192709926516
139.5052598019829	1	learning	violation	2	A	10	scene	indoor	1	0.6213718309882097
142.5052263329853	1	learning	violation	2	B	10	scene	outdoor	1	0.5414034869754687
145.50518158095656	1	learning	nonviolation	2	A	60	scene	outdoor	1	0.4824409110005945
148.5051376579795	1	learning	nonviolation	2	B	60	scene	outdoor	1	0.5094082209980115
151.50509998894998	1	learning	violation	2	A	11	scene	indoor	0	0.8135296420077793
154.50506448699159	1	learning	violation	2	B	11	scene	outdoor	1	0.6505640369723551
157.50503109797137	1	learning	nonviolation	2	A	61	scene	outdoor	1	0.5625944400089793
160.50498330098344	1	learning	nonviolation	2	B	61	scene	indoor	0	0.7026467879768461
163.50495039799716	1	learning	nonviolation	3	A	58	scene	outdoor	1	0.7346046649618074
166.50490468094358	1	learning	nonviolation	3	B	58	scene	outdoor	1	0.68772764201276
169.50486506399466	1	learning	violation	2	A	12	scene	outdoor	1	0.7407636199495755
172.5048340479843	1	learning	violation	2	B	12	scene	indoor	1	0.751815447001718
175.50479488697601	1	learning	violation	3	A	11	scene	indoor	1	0.8378313300199807
178.5047545059933	1	learning	violation	3	B	11	scene	outdoor	1	0.8898788979859091
181.50472098699538	1	learning	nonviolation	4	A	57	scene	indoor	1	0.8159307329915464
184.50467398099136	1	learning	nonviolation	4	B	57	scene	indoor	1	0.605963731999509
187.50463890098038	1	learning	violation	2	A	13	scene	outdoor	1	0.6079940950148739
190.5045894419891	1	learning	violation	2	B	13	scene	indoor	1	1.0420476309955122
193.50454583496318	1	learning	violation	2	A	14	scene	outdoor	1	0.6990882339887321
196.50451633997727	1	learning	violation	2	B	14	scene	outdoor	1	1.0711186159751378
199.50447208195686	1	learning	violation	3	A	9	scene	indoor	1	0.5781072489917278
202.50444223196246	1	learning	violation	3	B	9	scene	indoor	1	1.0951979780220429
205.50442604097768	1	learning	nonviolation	2	A	62	scene	outdoor	1	0.6182066850014962
208.5043529679533	1	learning	nonviolation	2	B	62	scene	indoor	1	0.8653116620262153
211.50431149097855	1	learning	violation	3	A	13	scene	outdoor	1	1.0883301299763843
214.50428183394249	1	learning	violation	3	B	13	scene	indoor	1	0.6733534010127187
217.50423882395265	1	learning	violation	3	A	10	scene	indoor	1	0.6703405100270174
220.50420704396674	1	learning	violation	3	B	10	scene	outdoor	1	0.6914275960298255
223.5041550359456	1	learning	nonviolation	3	A	60	scene	outdoor	1	1.0723606300307438
226.50411443895428	1	learning	nonviolation	3	B	60	scene	outdoor	1	0.6535261190147139
229.50408928096292	1	learning	violation	3	A	14	scene	outdoor	1	0.6164951280225068
232.48735962394855	1	learning	violation	3	B	14	scene	outdoor	1	0.795281300030183
235.5040048409719	1	learning	violation	4	A	11	scene	indoor	1	0.7086375720100477
238.50395804096482	1	learning	violation	4	B	11	scene	outdoor	1	0.6616769970278256
241.4872399469605	1	restudy	nonviolation	5	B	57	scene	indoor	1	0.6314026479958557
244.5038690369693	1	learning	nonviolation	3	A	59	scene	indoor	1	0.9177720869774929
247.48716357297963	1	learning	nonviolation	3	B	59	scene	indoor	1	0.6764902470167726
250.48712584399615	1	learning	violation	3	A	12	scene	outdoor	1	0.7445142959477379
253.48709755297747	1	learning	violation	3	B	12	scene	indoor	1	0.8355407959898002
256.48705487896217	1	learning	nonviolation	3	A	61	scene	outdoor	1	0.8905531089985743
259.48701155994786	1	learning	nonviolation	3	B	61	scene	indoor	0	0.7146400660276413
262.48697203595657	1	learning	violation	4	A	13	scene	outdoor	1	0.91467297001509
265.48693152598565	1	learning	violation	4	B	13	scene	indoor	n/a	n/a
268.48688914498786	1	violation	violation	5	A	11	scene	indoor	1	0.4887499840115197
271.4868511169916	1	violation	violation	1	X	11	face	male	1	0.9097870389814487
274.4868106349604	1	learning	nonviolation	4	A	60	scene	outdoor	1	0.5978345029870981
277.4867713339627	1	learning	nonviolation	4	B	60	scene	outdoor	1	0.5167920620297082
280.48673668998526	1	learning	nonviolation	4	A	59	scene	indoor	1	0.835906166001223
283.4866996059427	1	learning	nonviolation	4	B	59	scene	indoor	1	0.5529423320549539
286.48666838998906	1	learning	nonviolation	4	A	58	scene	outdoor	1	0.7519787079654634
289.48662167298613	1	learning	nonviolation	4	B	58	scene	outdoor	1	0.6750241789850406
292.4865998979658	1	learning	nonviolation	3	A	62	scene	outdoor	1	0.9040466570295392
295.48654830094887	1	learning	nonviolation	3	B	62	scene	indoor	1	1.010093146993313
298.4865078749717	1	restudy	nonviolation	6	B	57	scene	indoor	1	0.6091360410209745
301.48647020495264	1	learning	violation	4	A	10	scene	indoor	1	0.953174332040362
304.4864255609573	1	learning	violation	4	B	10	scene	outdoor	1	0.8632220610161312
307.4864232269465	1	learning	violation	4	A	9	scene	indoor	1	0.6632250650436617
310.48635156499216	1	learning	violation	4	B	9	scene	indoor	1	0.5702993629965931
313.4863059679628	1	learning	violation	4	A	14	scene	outdoor	1	0.7173428679816425
316.48627459898125	1	learning	violation	4	B	14	scene	outdoor	1	0.6623771699960344
319.4862322849804	1	violation	violation	5	A	13	scene	outdoor	0	0.9704232689691707
322.4861880389508	1	violation	violation	1	X	13	face	female	1	0.9204576320480556
325.4861462739645	1	restudy	nonviolation	5	B	60	scene	outdoor	1	0.7175077300053091
328.48610832897253	1	restudy	nonviolation	5	B	59	scene	indoor	1	0.6375387209700419
331.486075060966	1	learning	nonviolation	2	A	63	scene	indoor	1	0.7225752749945968
334.48603427095804	1	learning	nonviolation	2	B	63	scene	outdoor	1	0.9076129210297951
337.48598721495364	1	learning	nonviolation	4	A	61	scene	outdoor	1	0.6656643479946069
340.4859676429769	1	learning	nonviolation	4	B	61	scene	indoor	0	0.8726837509893812
343.48591763299186	1	restudy	violation	5	B	11	scene	outdoor	1	0.6567321039619856
346.48587754496833	1	restudy	violation	5	B	13	scene	indoor	1	0.7267771079787053
349.4858380549704	1	learning	violation	2	A	15	scene	outdoor	1	0.876815830997657
352.4857913609594	1	learning	violation	2	B	15	scene	outdoor	1	0.837864801986143
355.4857540299999	1	violation	violation	5	A	9	scene	indoor	1	0.5979098459938541
358.48572069598595	1	violation	violation	1	X	9	face	female	1	0.8299308379646391
361.48567199596437	1	learning	violation	4	A	12	scene	outdoor	1	0.5429820090066642
364.48564488795824	1	learning	violation	4	B	12	scene	indoor	1	0.9860081390361302
367.48559246095834	1	restudy	nonviolation	6	B	59	scene	indoor	1	0.9949431759887376
370.4855709169642	1	restudy	nonviolation	6	B	60	scene	outdoor	1	0.9580913630197756
373.48551126196986	1	violation	violation	5	A	14	scene	outdoor	1	0.6651404079748318
376.48549174598884	1	violation	violation	1	X	14	face	male	1	0.7871706759906374
379.4854481359943	1	violation	violation	5	A	10	scene	indoor	1	0.9402072489610872
382.4854035519529	1	violation	violation	1	X	10	face	male	1	1.0502621449995786
385.48537413298624	1	restudy	nonviolation	5	B	58	scene	outdoor	1	0.578304260969162
388.4853345329757	1	learning	nonviolation	4	A	62	scene	outdoor	1	0.8083270019851625
391.48529039998533	1	learning	nonviolation	4	B	62	scene	indoor	1	0.961369371972978
394.4852384769474	1	learning	nonviolation	3	A	63	scene	indoor	1	0.8864220100222155
397.4851997249643	1	learning	nonviolation	3	B	63	scene	outdoor	1	1.1974555350025184
400.48515889799455	1	violation	violation	6	A	11	scene	indoor	1	0.918501815001946
403.4851174459909	1	violation	violation	1	Y	11	face	male	1	0.7895391169586219
406.48508030996885	1	violation	violation	6	A	13	scene	outdoor	1	0.6895775099983439
409.4850468839868	1	violation	violation	1	Y	13	face	female	1	0.7996117539587431
412.48500050196884	1	violation	violation	5	A	12	scene	outdoor	1	1.1426612599752843
415.4849632089608	1	violation	violation	1	X	12	face	female	1	0.6736979970009997
418.48492009099573	1	learning	violation	3	A	15	scene	outdoor	1	0.5777390970033593
421.48487847094657	1	learning	violation	3	B	15	scene	outdoor	1	0.6177765770116821
424.4848423429648	1	restudy	nonviolation	5	B	61	scene	indoor	0	0.5138217040221207
427.4848091069725	1	restudy	violation	5	B	14	scene	outdoor	1	0.5528555929777212
430.4847632589517	1	restudy	violation	5	B	9	scene	indoor	1	1.0028940330375915
433.4847378629492	1	learning	violation	2	A	16	scene	indoor	1	0.7619250930147246
436.48468936898286	1	learning	violation	2	B	16	scene	indoor	1	1.218978339980822
439.4846520669526	1	learning	violation	4	A	15	scene	outdoor	1	0.5620077300118282
442.4846132779494	1	learning	violation	4	B	15	scene	outdoor	1	0.7150526210316457
445.4845671319637	1	restudy	nonviolation	6	B	58	scene	outdoor	1	0.4821007690043189
448.4845278559951	1	learning	nonviolation	2	A	64	scene	indoor	1	0.6331343689817004
451.4844872889808	1	learning	nonviolation	2	B	64	scene	outdoor	1	0.7971790709998459
454.4844568869448	1	restudy	violation	5	B	12	scene	indoor	1	0.7332124540116638
457.48440879699774	1	restudy	nonviolation	6	B	61	scene	indoor	0	0.5932573769823648
460.4843760119984	1	restudy	violation	5	B	10	scene	outdoor	1	0.5762967099435627
463.48432956496254	1	violation	violation	5	A	15	scene	outdoor	1	0.5583417320158333
466.4842847699765	1	violation	violation	1	X	15	face	male	1	0.7414081660099328
469.4842540559475	1	restudy	violation	6	B	11	scene	outdoor	1	0.657416258007288
472.48421825096017	1	learning	violation	3	A	16	scene	indoor	1	0.8104562070220709
475.48417762899766	1	learning	violation	3	B	16	scene	indoor	1	0.8204971889499575
478.4841307609458	1	learning	nonviolation	3	A	64	scene	indoor	1	0.7925338920322247
481.48409101099236	1	learning	nonviolation	3	B	64	scene	outdoor	1	0.7085799079504795
484.48407280299585	1	violation	violation	6	A	12	scene	outdoor	1	0.8256001429981552
487.4840229679831	1	violation	violation	1	Y	12	face	female	1	0.7516466740053147
490.4839812779682	1	restudy	nonviolation	5	B	62	scene	indoor	1	0.697691465029493
493.4839370119735	1	learning	nonviolation	4	A	63	scene	indoor	n/a	n/a
496.4838992899749	1	learning	nonviolation	4	B	63	scene	outdoor	1	0.6237730190041475
499.4838489809772	1	learning	nonviolation	4	A	64	scene	indoor	1	0.510818931972608
502.4838219179656	1	learning	nonviolation	4	B	64	scene	outdoor	1	0.5348497990053147
505.48377490194986	1	restudy	violation	6	B	13	scene	indoor	1	0.6209063680144027
508.48373269394506	1	violation	violation	6	A	9	scene	indoor	1	0.946947461052332
511.48369456798537	1	violation	violation	1	Y	9	face	female	1	0.7739829819765873
514.4836599309929	1	violation	violation	6	A	14	scene	outdoor	1	0.7740149709861726
517.4836149879849	1	violation	violation	1	Y	14	face	male	1	0.8500692209927365
520.4835838679573	1	learning	violation	4	A	16	scene	indoor	1	0.9600934330374002
523.4835353029775	1	learning	violation	4	B	16	scene	indoor	1	0.8011448520119302
526.4834963629837	1	restudy	nonviolation	5	B	63	scene	outdoor	1	0.7170612899935804
529.4834620969486	1	restudy	nonviolation	5	B	64	scene	outdoor	1	0.5112138070398942
532.4834167179652	1	violation	violation	5	A	16	scene	indoor	1	0.6192591940052807
535.4833842389635	1	violation	violation	1	X	16	face	female	1	0.7422907979926094
538.4833429329448	1	violation	violation	6	A	10	scene	indoor	1	0.6212095210212283
541.4833052099566	1	violation	violation	1	Y	10	face	male	1	0.8453689840389416
544.4832652249606	1	restudy	violation	6	B	14	scene	outdoor	1	0.7332875769934617
547.483218467969	1	restudy	violation	5	B	16	scene	indoor	1	0.7084579920046963
550.4831795369973	1	restudy	violation	6	B	12	scene	indoor	1	0.9754989429493436
553.4831512309612	1	restudy	violation	6	B	10	scene	outdoor	1	0.5955261570052244
556.483106308966	1	restudy	nonviolation	6	B	62	scene	indoor	1	0.6725750599871391
559.4830704109627	1	restudy	violation	5	B	15	scene	outdoor	1	0.6996067650034092
562.4830324229551	1	restudy	violation	6	B	9	scene	indoor	1	0.6826255770283751
565.4829812089448	1	restudy	nonviolation	6	B	64	scene	outdoor	1	0.5716993140522391
568.4829478279571	1	violation	violation	6	A	16	scene	indoor	1	0.8967340179951862
571.4829087899998	1	violation	violation	1	Y	16	face	female	1	0.8667755729984492
574.4828623689828	1	violation	violation	6	A	15	scene	outdoor	1	0.6648181810160168
577.4828312299796	1	violation	violation	1	Y	15	face	male	1	0.7058477610116825
580.4827999969713	1	restudy	nonviolation	6	B	63	scene	outdoor	1	0.7778800849919207
583.4827521339757	1	restudy	violation	6	B	16	scene	indoor	1	0.5469377069966868
586.4827064119745	1	restudy	violation	6	B	15	scene	outdoor	1	0.9009780639898964
