onset	duration	trial_type	condition	repetition	pairmate	pairID	category	subcategory	response_accuracy	response_time
13.505199830979107	1	prelearning	violation	1	B	46	scene	outdoor	1	0.5610433751717211
16.50516171520576	1	prelearning	violation	1	A	42	scene	indoor	1	0.5142038459889591
19.505121557042006	1	prelearning	violation	1	B	47	scene	outdoor	0	0.6982401539571583
22.505090649239715	1	prelearning	nonviolation	1	B	95	scene	outdoor	1	0.5062741781584918
25.50505849905312	1	prelearning	violation	1	A	41	scene	indoor	1	0.5343021862208843
28.505012826062735	1	prelearning	violation	1	B	43	scene	indoor	1	0.511353200301528
31.504966979380693	1	prelearning	nonviolation	1	A	91	scene	outdoor	1	0.3714015786536038
34.504925354383886	1	prelearning	violation	1	B	42	scene	indoor	1	0.603381569031626
37.504929216112934	1	prelearning	nonviolation	1	B	92	scene	indoor	1	0.6724358242936432
40.50484898034483	1	prelearning	nonviolation	1	A	95	scene	indoor	1	0.5693936720490456
43.50481392722577	1	prelearning	nonviolation	1	B	96	scene	outdoor	1	0.4845553301274777
46.50477093411611	1	prelearning	nonviolation	1	B	91	scene	outdoor	1	0.6155966962687671
49.504729355219744	1	prelearning	violation	1	B	41	scene	outdoor	1	0.7146713677793741
52.504691241309054	1	prelearning	violation	1	A	44	scene	outdoor	1	0.4256798936985433
55.504653597250574	1	prelearning	violation	1	A	48	scene	indoor	1	0.5337194949388504
58.5046430779621	1	prelearning	nonviolation	1	A	93	scene	indoor	1	0.5197268463671207
61.50457441108301	1	prelearning	nonviolation	1	A	92	scene	outdoor	1	0.5267951251007617
64.5045405253768	1	prelearning	violation	1	A	46	scene	outdoor	1	0.4848278700374067
67.50453108595684	1	prelearning	violation	1	A	47	scene	outdoor	1	0.498843823093921
70.50445804605259	1	prelearning	violation	1	B	45	scene	indoor	1	0.7049133391119541
73.50442030932754	1	prelearning	nonviolation	1	A	90	scene	outdoor	0	0.5419228407554328
76.50438630301505	1	prelearning	nonviolation	1	B	93	scene	indoor	1	0.8049825862981379
79.50433916505426	1	prelearning	nonviolation	1	B	94	scene	outdoor	1	0.513032662216574
82.50430067814887	1	prelearning	violation	1	B	48	scene	outdoor	1	0.4910702360793948
85.50425780611113	1	prelearning	nonviolation	1	B	90	scene	indoor	1	0.6431131502613425
88.5042182612233	1	prelearning	violation	1	A	45	scene	outdoor	1	0.5221583498641849
91.50419064238669	1	prelearning	nonviolation	1	A	89	scene	indoor	1	0.4831847897730768
94.50413875700907	1	prelearning	violation	1	A	43	scene	indoor	1	0.4972066623158753
97.50414054421707	1	prelearning	violation	1	B	44	scene	indoor	1	0.513235388789326
100.50407090596858	1	prelearning	nonviolation	1	A	94	scene	indoor	1	0.4953040364198386
103.50404389621691	1	prelearning	nonviolation	1	A	96	scene	outdoor	1	0.5883345878683031
106.50398159213364	1	prelearning	nonviolation	1	B	89	scene	indoor	1	0.5503912079147995
109.50394509499891	1	learning	violation	2	A	41	scene	indoor	1	0.606433134060353
112.50391743797807	1	learning	violation	2	B	41	scene	outdoor	1	0.4714627009816468
115.5038636731915	1	learning	nonviolation	2	A	89	scene	indoor	1	0.5525078647769988
118.50382398115472	1	learning	nonviolation	2	B	89	scene	indoor	1	0.5485550439916551
121.50378372799604	1	learning	nonviolation	2	A	90	scene	outdoor	1	0.6875935471616685
124.50374567741528	1	learning	nonviolation	2	B	90	scene	indoor	1	0.5846329899504781
127.50374831818044	1	learning	violation	2	A	42	scene	indoor	1	0.6056350930593908
130.50366602512076	1	learning	violation	2	B	42	scene	indoor	1	0.5897081522271037
133.50363492639735	1	learning	violation	3	A	41	scene	indoor	1	0.695746355690062
136.50359455030411	1	learning	violation	3	B	41	scene	outdoor	1	0.4917840748094022
139.503545565065	1	learning	violation	2	A	43	scene	indoor	1	0.5608298759907484
142.50350768212232	1	learning	violation	2	B	43	scene	indoor	1	0.5388531191274524
145.50346750440076	1	learning	nonviolation	3	A	90	scene	outdoor	1	0.6069207396358252
148.50343491695818	1	learning	nonviolation	3	B	90	scene	indoor	1	0.6149486573413014
151.5033872150816	1	learning	violation	2	A	44	scene	outdoor	1	0.4449868979863823
154.5033463742584	1	learning	violation	2	B	44	scene	indoor	1	0.5740358708426356
157.5033390740864	1	learning	nonviolation	2	A	91	scene	outdoor	1	0.4770419979467988
160.50326810032132	1	learning	nonviolation	2	B	91	scene	outdoor	1	0.4641167726367712
163.50322794029492	1	learning	violation	2	A	45	scene	outdoor	1	0.5901573789305985
166.50320150330663	1	learning	violation	2	B	45	scene	indoor	1	0.7561863278970122
169.50314774597064	1	learning	nonviolation	2	A	92	scene	outdoor	1	0.5612325500696898
172.50310730421916	1	learning	nonviolation	2	B	92	scene	indoor	1	0.5272745708934963
175.50307376496494	1	learning	violation	2	A	46	scene	outdoor	1	0.5443041143007576
178.50303144427016	1	learning	violation	2	B	46	scene	outdoor	1	0.5603537447750568
181.5029989271425	1	learning	nonviolation	3	A	89	scene	indoor	1	0.5023846458643675
184.50295015238223	1	learning	nonviolation	3	B	89	scene	indoor	1	0.7514356919564307
187.50295449234542	1	learning	violation	3	A	42	scene	indoor	1	0.8294350770302117
190.50286973826587	1	learning	violation	3	B	42	scene	indoor	1	0.5495156487450004
193.50282875215638	1	learning	nonviolation	2	A	93	scene	indoor	1	0.5565667110495269
196.5028005442582	1	learning	nonviolation	2	B	93	scene	indoor	1	0.619586578104645
199.50275037530807	1	learning	violation	2	A	47	scene	outdoor	1	0.6456378027796745
202.50271070841703	1	learning	violation	2	B	47	scene	outdoor	1	0.5486798495985568
205.50266975816342	1	learning	violation	3	A	45	scene	outdoor	1	0.5117239230312407
208.50262931920585	1	learning	violation	3	B	45	scene	indoor	1	0.6197641491889954
211.5025889500976	1	learning	violation	3	A	44	scene	outdoor	1	0.5328040281310678
214.5025513111614	1	learning	violation	3	B	44	scene	indoor	1	0.4788389201276004
217.5025504073128	1	learning	violation	4	A	41	scene	indoor	1	0.5508420378901064
220.50247639231384	1	learning	violation	4	B	41	scene	outdoor	1	0.5219109570607543
223.5024452870712	1	learning	nonviolation	3	A	93	scene	indoor	1	0.7999420613050461
226.5023938883096	1	learning	nonviolation	3	B	93	scene	indoor	1	0.9249962507747114
229.50234918110078	1	learning	violation	3	A	43	scene	indoor	1	0.5950420210137963
232.50232149614018	1	learning	violation	3	B	43	scene	indoor	1	0.4590745349414647
235.50227122707287	1	violation	violation	5	A	41	scene	indoor	1	0.5220858692191541
238.50224012415856	1	violation	violation	1	X	41	face	male	1	0.6181501462124288
241.50219003297386	1	learning	violation	3	A	47	scene	outdoor	1	0.5320758693851529
244.50215921131888	1	learning	violation	3	B	47	scene	outdoor	1	0.4872276559472084
247.5021500401199	1	learning	nonviolation	4	A	90	scene	outdoor	1	0.5432439111173153
250.5020717843436	1	learning	nonviolation	4	B	90	scene	indoor	1	0.6733166137710214
253.50203090906143	1	learning	violation	4	A	43	scene	indoor	1	0.5583645049482584
256.50199068011716	1	learning	violation	4	B	43	scene	indoor	1	0.6054061581380665
259.50195216899743	1	learning	violation	2	A	48	scene	indoor	1	0.6504460731521249
262.50191058404744	1	learning	violation	2	B	48	scene	outdoor	1	0.5794850983656943
265.5018712054007	1	learning	nonviolation	4	A	89	scene	indoor	1	0.5975281009450555
268.5018310053274	1	learning	nonviolation	4	B	89	scene	indoor	1	0.5715639530681074
271.50179069815204	1	learning	nonviolation	2	A	94	scene	indoor	1	0.6176014458760619
274.5017567030154	1	learning	nonviolation	2	B	94	scene	outdoor	1	0.8516373801976442
277.501718997024	1	learning	nonviolation	3	A	92	scene	outdoor	1	0.6596753941848874
280.5016709701158	1	learning	nonviolation	3	B	92	scene	indoor	1	0.5386547772213817
283.50163268903265	1	learning	nonviolation	3	A	91	scene	outdoor	1	0.4897592053748667
286.50159064121544	1	learning	nonviolation	3	B	91	scene	outdoor	1	0.6077570640482008
289.50155885610735	1	learning	violation	4	A	44	scene	outdoor	1	0.5508398138917983
292.50151261128485	1	learning	violation	4	B	44	scene	indoor	1	0.7468868959695101
295.5014840862714	1	learning	violation	3	A	46	scene	outdoor	1	0.7199011440388858
298.5014305263757	1	learning	violation	3	B	46	scene	outdoor	1	0.5099648716859521
301.50138953933487	1	learning	violation	3	A	48	scene	indoor	1	0.5590104577131569
304.501350637991	1	learning	violation	3	B	48	scene	outdoor	1	0.44705536821857095
307.5013204771094	1	learning	violation	4	A	42	scene	indoor	1	0.6140785082243383
310.48460534028715	1	learning	violation	4	B	42	scene	indoor	1	0.668796309735626
313.484552431386	1	violation	violation	5	A	44	scene	outdoor	1	0.4548471397720277
316.4845115169883	1	violation	violation	1	X	44	face	female	1	0.43989569414407015
319.48447217233485	1	learning	violation	4	A	45	scene	outdoor	1	0.6429361999034882
322.4844289482571	1	learning	violation	4	B	45	scene	indoor	1	0.6609716527163982
325.48439233098185	1	restudy	violation	5	B	41	scene	outdoor	1	0.5770094920881093
328.4843511823565	1	learning	nonviolation	2	A	95	scene	indoor	1	0.4900224446319044
331.4843185772188	1	learning	nonviolation	2	B	95	scene	outdoor	1	0.4200844038277865
334.48427654709667	1	restudy	nonviolation	5	B	90	scene	indoor	1	0.6151258409954607
337.4842365961522	1	restudy	nonviolation	5	B	89	scene	indoor	1	0.6701722838915884
340.4842049269937	1	learning	nonviolation	4	A	93	scene	indoor	1	0.6441956320777535
343.48416313203046	1	learning	nonviolation	4	B	93	scene	indoor	1	0.5732413870282471
346.4841180313378	1	learning	violation	4	A	47	scene	outdoor	1	0.5482844128273427
349.4840801181272	1	learning	violation	4	B	47	scene	outdoor	1	0.5523257232271135
352.4840418272652	1	restudy	nonviolation	6	B	90	scene	indoor	1	0.652360649779439
355.4839968890883	1	violation	violation	5	A	43	scene	indoor	1	0.5954113421030343
358.4839575681836	1	violation	violation	1	X	43	face	female	1	0.5944482581689954
361.4839185401797	1	violation	violation	5	A	45	scene	outdoor	1	0.5274831401184201
364.4838886251673	1	violation	violation	1	X	45	face	female	1	0.7555201761424541
367.4838475021534	1	learning	nonviolation	4	A	92	scene	outdoor	1	0.774565048981458
370.48379903519526	1	learning	nonviolation	4	B	92	scene	indoor	1	0.8116147820837796
373.4837607312948	1	restudy	violation	5	B	44	scene	indoor	1	0.6096429899334908
376.4837231040001	1	learning	nonviolation	3	A	95	scene	indoor	1	0.6545628230087459
379.4836881840602	1	learning	nonviolation	3	B	95	scene	outdoor	1	0.714721729978919
382.48364201141516	1	learning	nonviolation	3	A	94	scene	indoor	1	0.5017662518657744
385.4836001233198	1	learning	nonviolation	3	B	94	scene	outdoor	1	0.5748203899711372
388.48357696039596	1	learning	violation	4	A	48	scene	indoor	1	0.5598337748087943
391.4835185660049	1	learning	violation	4	B	48	scene	outdoor	1	0.5658926940523088
394.4834788590669	1	learning	nonviolation	4	A	91	scene	outdoor	1	0.5769360950216651
397.4834363451228	1	learning	nonviolation	4	B	91	scene	outdoor	1	0.5119732660241425
400.48341266531503	1	learning	violation	4	A	46	scene	outdoor	1	0.5350074176676571
403.48335711099213	1	learning	violation	4	B	46	scene	outdoor	1	0.45005649141967297
406.4833263410255	1	learning	nonviolation	2	A	96	scene	outdoor	1	0.4810832613147795
409.4832853251137	1	learning	nonviolation	2	B	96	scene	outdoor	1	0.5641265800222754
412.4832337209955	1	violation	violation	5	A	42	scene	indoor	1	0.6021779794245958
415.48321309126914	1	violation	violation	1	X	42	face	female	1	0.6112059000879526
418.483155076392	1	violation	violation	5	A	47	scene	outdoor	1	0.5422607236541808
421.48311555199325	1	violation	violation	1	X	47	face	male	1	0.5953034861013293
424.4830804360099	1	violation	violation	6	A	41	scene	indoor	1	0.6263338010758162
427.48303369106725	1	violation	violation	1	Y	41	face	male	1	0.5053831050172448
430.48299701139325	1	violation	violation	6	A	44	scene	outdoor	1	0.4754136325791478
433.4829558003693	1	violation	violation	1	Y	44	face	female	1	0.5054569216445088
436.48291498003533	1	learning	nonviolation	3	A	96	scene	outdoor	1	0.6295060361735523
439.48288690205663	1	learning	nonviolation	3	B	96	scene	outdoor	1	0.6165287331677973
442.4828377892263	1	restudy	nonviolation	5	B	93	scene	indoor	1	0.7305773659609258
445.4827964683063	1	restudy	violation	5	B	42	scene	indoor	1	0.7136187590658665
448.48275481630117	1	restudy	nonviolation	6	B	89	scene	indoor	1	1.0216672676615417
451.4827213119716	1	restudy	violation	5	B	43	scene	indoor	1	0.5276995813474059
454.4826839300803	1	restudy	violation	5	B	45	scene	indoor	1	0.560734081082046
457.4826376060955	1	learning	nonviolation	4	A	95	scene	indoor	1	0.5237897410988808
460.4825934283435	1	learning	nonviolation	4	B	95	scene	outdoor	1	0.5288249468430877
463.4825547263026	1	restudy	nonviolation	5	B	92	scene	indoor	1	0.7148663187399507
466.48251190828165	1	violation	violation	5	A	48	scene	indoor	1	0.5499089118093252
469.4824730162508	1	violation	violation	1	X	48	face	male	1	0.6899489229544997
472.48243961436674	1	violation	violation	6	A	45	scene	outdoor	1	0.8139787619002163
475.4824228421785	1	violation	violation	1	Y	45	face	female	1	0.6149993548169732
478.48235600721085	1	learning	nonviolation	4	A	94	scene	indoor	1	0.6170645998790861
481.48234212910756	1	learning	nonviolation	4	B	94	scene	outdoor	1	0.7281016488559544
484.4822705471888	1	restudy	violation	6	B	41	scene	outdoor	1	0.8001317582093179
487.48223270196473	1	restudy	violation	6	B	44	scene	indoor	1	0.7681879913434386
490.482226915192	1	violation	violation	6	A	42	scene	indoor	1	0.5371979530900717
493.4821489620953	1	violation	violation	1	Y	42	face	female	1	0.6212738142348826
496.48211082909256	1	restudy	nonviolation	5	B	91	scene	outdoor	1	0.6083170850761235
499.4820691142231	1	violation	violation	5	A	46	scene	outdoor	1	0.519274007063359
502.48203064035624	1	violation	violation	1	X	46	face	male	1	0.6213927697390318
505.4819896700792	1	restudy	violation	5	B	47	scene	outdoor	1	0.6664361720904708
508.4819490034133	1	restudy	nonviolation	6	B	93	scene	indoor	1	0.9164766669273376
511.48191946139565	1	restudy	nonviolation	6	B	92	scene	indoor	1	0.4765062597580254
514.4818743583746	1	learning	nonviolation	4	A	96	scene	outdoor	1	0.5405522598885
517.4818288329989	1	learning	nonviolation	4	B	96	scene	outdoor	1	0.7726049940101802
520.4817853071727	1	violation	violation	6	A	43	scene	indoor	1	0.599639527965337
523.4817483914085	1	violation	violation	1	Y	43	face	female	1	0.4836057526990771
526.4817057522014	1	restudy	nonviolation	6	B	91	scene	outdoor	1	0.5517218038439751
529.4816783349961	1	restudy	violation	5	B	46	scene	outdoor	1	0.5187469990924001
532.4816260971129	1	restudy	violation	5	B	48	scene	outdoor	1	0.5087997149676085
535.4815862793475	1	restudy	nonviolation	5	B	94	scene	outdoor	1	0.5088351629674435
538.4815442590043	1	restudy	violation	6	B	45	scene	indoor	1	0.7498826812952757
541.4815202313475	1	violation	violation	6	A	48	scene	indoor	1	0.5478327837772667
544.4814629103057	1	violation	violation	1	Y	48	face	male	1	0.7199654630385339
547.4814261402935	1	restudy	nonviolation	5	B	95	scene	outdoor	1	0.8090113908983767
550.4813852142543	1	violation	violation	6	A	46	scene	outdoor	1	0.5620487807318568
553.4813447133638	1	violation	violation	1	Y	46	face	male	1	0.4610882219858468
556.4813058683649	1	violation	violation	6	A	47	scene	outdoor	1	0.5981264016591012
559.4812644892372	1	violation	violation	1	Y	47	face	male	1	0.5731727229431272
562.4812220521271	1	restudy	violation	6	B	43	scene	indoor	1	0.6932141222059727
565.4811838991009	1	restudy	violation	6	B	48	scene	outdoor	1	0.5851293019950389
568.4811488813722	1	restudy	nonviolation	5	B	96	scene	outdoor	1	0.7082829480059445
571.4811030761339	1	restudy	nonviolation	6	B	94	scene	outdoor	1	0.6063353819772601
574.4810621812941	1	restudy	violation	6	B	42	scene	indoor	1	0.8203743267804384
577.4810343380086	1	restudy	violation	6	B	46	scene	outdoor	1	0.5734305423684418
580.4809835231863	1	restudy	violation	6	B	47	scene	outdoor	1	0.6334113897755742
583.4809439620003	1	restudy	nonviolation	6	B	96	scene	outdoor	1	0.8764908080920577
586.4809100641869	1	restudy	nonviolation	6	B	95	scene	outdoor	1	0.533523203805089
