onset	duration	trial_type	subcategory	response_accuracy	response_time
13.510054738027975	0.5	object	natural	1	0.9092706481460482
15.010032734135166	0.5	object	manmade	1	0.6632873190101236
16.51002464001067	0.5	object	manmade	1	0.8912962090689689
18.010009756078944	0.5	object	natural	1	0.6833136021159589
19.5099747821223	0.5	object	natural	n/a	n/a
21.00996312708594	0.5	object	manmade	1	0.7483633561059833
22.509934714064002	0.5	object	natural	1	0.6313900509849191
24.00991550204344	0.5	object	natural	1	0.7964087531436235
25.509895376162603	0.5	object	manmade	1	0.7034242039080709
27.009891715133563	0.5	object	manmade	1	0.8404325440060347
43.50965872919187	0.5	object	natural	n/a	n/a
45.00964148202911	0.5	object	manmade	1	0.607704590074718
46.50962321017869	0.5	object	manmade	1	0.6387009429745376
48.00960130314343	0.5	object	natural	1	0.5187279740348458
49.50957911997102	0.5	object	manmade	1	0.8377517021726817
51.009566887049004	0.5	object	natural	1	0.7717586781363934
52.509541805135086	0.5	object	natural	1	0.5387798689771444
54.00953297200613	0.5	object	manmade	1	0.6567234201356769
55.50950531917624	0.5	object	natural	1	0.5518190239090472
57.00948561518453	0.5	object	manmade	1	0.5778400038834661
73.5092653031461	0.5	face	female	1	0.6550630959682167
75.00924957310781	0.5	face	female	1	0.5390823660418391
76.50922816805542	0.5	face	male	1	0.4011062919162214
78.0092143539805	0.5	face	male	1	0.4951157490722835
79.50918676913716	0.5	face	male	1	0.5191400710027665
81.00916773197241	0.5	face	female	1	0.6461653641890734
82.50915937218815	0.5	face	female	1	0.4381737969815731
84.00913612311706	0.5	face	male	1	0.8541993079707026
85.50911980797537	0.5	face	male	1	0.5592146161943674
87.00912535516545	0.5	face	female	1	0.5102011270355433
103.50887016113847	0.5	scene	indoor	1	0.7704622440505773
105.00885687209666	0.5	scene	indoor	1	0.8214773389045149
106.50883286516182	0.5	scene	outdoor	1	0.5264997009653598
108.02550532808527	0.5	scene	indoor	1	0.5988556758966297
109.50879076402634	0.5	scene	outdoor	1	0.7945497131440789
111.00876913405955	0.5	scene	outdoor	1	0.824563184985891
112.50875006709248	0.5	scene	indoor	1	0.6745859680231661
114.00873147207312	0.5	scene	outdoor	1	0.6946065309457481
115.5087102369871	0.5	scene	indoor	1	0.6915476091671735
117.00869087013416	0.5	scene	outdoor	1	0.5936458520591259
133.50847062817775	0.5	face	female	1	0.6568625478539616
135.00845386018045	0.5	face	male	1	0.5379068627953529
136.50843212613836	0.5	face	female	1	0.5228416679892689
138.00842601712793	0.5	face	female	1	0.4679142818786204
139.50839057005942	0.5	face	male	1	0.4569462470244616
141.00837240507826	0.5	face	male	1	0.5169636730570346
142.50835581007414	0.5	face	female	1	0.48098724498413503
144.00835350505076	0.5	face	female	1	0.49998753191903234
145.50831246306188	0.5	face	male	1	0.49603675096295774
147.00829431414604	0.5	face	male	1	0.6300416758749634
163.4913955500815	0.5	face	male	1	0.5059481440111995
164.99137405399233	0.5	face	male	1	0.4589681951329112
166.4913575281389	0.5	face	female	1	0.44298508088104427
167.99133583600633	0.5	face	male	1	0.42100116005167365
169.49131880910136	0.5	face	female	1	0.7870265790261328
170.99129808298312	0.5	face	female	1	0.541044264100492
172.49127528816462	0.5	face	male	1	0.4950627340003848
173.99125285702758	0.5	face	female	1	0.5750975201372057
175.49124166811816	0.5	face	female	1	0.4511052209418267
176.9912246861495	0.5	face	male	1	0.5281196979340166
193.4910028029699	0.5	object	manmade	1	0.588346018223092
194.99098031199537	0.5	object	natural	1	0.5953655161429197
196.49096508999355	0.5	object	natural	1	0.46237759408541024
197.99094314919785	0.5	object	manmade	1	0.6263493648730218
199.4909352750983	0.5	object	manmade	1	0.4974108610767871
200.9909083840903	0.5	object	manmade	1	0.7043799110688269
202.49088637297973	0.5	object	natural	1	0.6143349250778556
203.99087376217358	0.5	object	manmade	1	0.6604784638620913
205.49084502412006	0.5	object	natural	1	0.5554975129198283
206.99082763213664	0.5	object	natural	1	0.612514081876725
223.4906067410484	0.5	scene	outdoor	1	0.6797455849591643
224.99059444805607	0.5	scene	outdoor	1	0.5507514730561525
226.49055910599418	0.5	scene	indoor	1	0.5297898449935019
227.99054734013043	0.5	scene	indoor	1	0.6007988110650331
229.49052496510558	0.5	scene	outdoor	1	0.5398041699081659
230.99050756008364	0.5	scene	indoor	1	0.6418456491082907
232.4904813580215	0.5	scene	indoor	1	0.7228608571458608
233.99047508114018	0.5	scene	outdoor	1	0.6008781448472291
235.4904457440134	0.5	scene	outdoor	1	0.6067875751759857
236.99042942910455	0.5	scene	indoor	1	0.5759310289286077
253.49020479107276	0.5	scene	indoor	1	0.6550219180062413
254.99018522398546	0.5	scene	indoor	1	0.655169292120263
256.490170550067	0.5	scene	outdoor	1	0.5281670410186052
257.9901486521121	0.5	scene	outdoor	1	0.6781385908834636
259.4901244621724	0.5	scene	outdoor	1	0.8852299368008971
260.9901044110302	0.5	scene	outdoor	1	0.5692519301082939
262.49008640204556	0.5	scene	indoor	1	0.773269928060472
263.9900765910279	0.5	scene	indoor	1	0.6191614309791476
265.49004454910755	0.5	scene	outdoor	1	0.5383053980767727
266.9900275701657	0.5	scene	indoor	1	0.5703250099904835
283.4897997141816	0.5	object	natural	1	0.6675557068083435
284.98978424211964	0.5	object	manmade	1	0.5505750798620284
286.48976439610124	0.5	object	manmade	1	0.8985985200852156
287.98974298802204	0.5	object	manmade	1	0.5716156121343374
289.4897218940314	0.5	object	natural	1	0.6106355939991772
290.98970329598524	0.5	object	manmade	1	0.5686542361509055
292.4896832241211	0.5	object	natural	1	0.5926558980718255
293.9896662251558	0.5	object	natural	1	0.6836944979149848
295.4896474389825	0.5	object	manmade	1	0.54271275899373
296.98962419712916	0.5	object	natural	1	0.6256703098770231
313.48940176004544	0.5	scene	outdoor	1	0.6709595469292253
314.9893828739878	0.5	scene	indoor	1	0.7789351770188659
316.4893683360424	0.5	scene	indoor	1	0.6439947050530463
317.98935958812945	0.5	scene	outdoor	1	0.5279260240495205
319.4893233231269	0.5	scene	indoor	1	0.7120420678984374
320.9893141409848	0.5	scene	outdoor	1	0.5500477140303701
322.4892824611161	0.5	scene	indoor	1	0.6479533039964736
323.9892711180728	0.5	scene	outdoor	1	0.5430931451264769
325.48925278615206	0.5	scene	indoor	1	0.5731053869239986
326.98922160919756	0.5	scene	outdoor	1	0.5421403939835727
343.48900398402475	0.5	object	manmade	1	0.5393618140369654
344.9889813461341	0.5	object	manmade	1	0.48238130984827876
346.48897534399293	0.5	object	manmade	1	0.5842655152082443
347.98894134303555	0.5	object	natural	1	0.6194231689441949
349.4889302011579	0.5	object	natural	1	0.5934390579350293
350.9889011520427	0.5	object	manmade	1	0.5704728430137038
352.4888814461883	0.5	object	natural	1	0.7024885008577257
353.9888602991123	0.5	object	manmade	1	0.5635121169034392
355.48883861419745	0.5	object	natural	1	0.6435301629826427
356.98882016097195	0.5	object	natural	1	0.5935470031108707
373.48859544307925	0.5	scene	outdoor	1	0.5357721371110529
374.98858164204285	0.5	scene	indoor	1	0.5307859641034156
376.4885572150815	0.5	scene	outdoor	1	0.5818070659879595
377.9885510900058	0.5	scene	outdoor	1	0.65081876097247
379.48852848703973	0.5	scene	indoor	1	0.5188409460242838
380.9884996539913	0.5	scene	indoor	1	0.5928669942077249
382.4884812759701	0.5	scene	outdoor	1	0.6368897431530058
383.98846420506015	0.5	scene	indoor	1	0.8719041310250759
385.4884365040343	0.5	scene	indoor	1	0.6929311761632562
386.9884181821253	0.5	scene	outdoor	1	0.5569491148926318
403.4881932330318	0.5	face	female	1	0.613179000094533
404.98818644997664	0.5	face	male	1	0.5851852979976684
406.48815812007524	0.5	face	male	1	0.5082142599858344
407.98813752504066	0.5	face	female	1	0.6562347600702196
409.4881197239738	0.5	face	female	1	0.5872530310880393
410.9880953291431	0.5	face	female	1	0.980279526906088
412.4880771271419	0.5	face	male	1	0.527299404842779
413.9880548440851	0.5	face	male	1	0.542317708954215
415.4880339181982	0.5	face	male	1	0.3773381048813462
416.9880166181829	0.5	face	female	0	0.3483559009619057
433.48779266211204	0.5	face	male	1	0.4515810899902135
434.9877744480036	0.5	face	male	1	0.40760408202186227
436.4877540401649	0.5	face	female	1	0.4295604629442096
437.98773209401406	0.5	face	female	1	0.49464976810850203
439.48771258909255	0.5	face	male	1	0.4175515261013061
440.9876919861417	0.5	face	female	1	0.46968591096810997
442.4876839341596	0.5	face	male	1	0.37169753899797797
443.987661131192	0.5	face	male	1	0.411748566897586
445.4876310219988	0.5	face	female	1	0.525696816155687
446.9876109850593	0.5	face	female	1	0.4677039049565792
