onset	duration	trial_type	condition	repetition	pairmate	pairID	category	subcategory	response_accuracy	response_time
13.505209986120462	1	postlearning	violation	7	B	33	scene	outdoor	1	0.7161169787868857
16.505171186290678	1	postlearning	nonviolation	7	B	60	scene	outdoor	1	0.5641495306044817
19.50513800792396	1	postlearning	violation	7	B	43	scene	outdoor	1	0.7501760623417795
22.505090033169843	1	postlearning	violation	7	B	37	scene	indoor	1	0.6702179308049381
25.505051270127296	1	postlearning	nonviolation	7	B	55	scene	outdoor	1	0.782262269873172
28.5050232950598	1	postlearning	nonviolation	7	B	86	scene	indoor	1	0.734290209133178
31.504973056260496	1	postlearning	nonviolation	7	B	79	scene	outdoor	1	0.7633374957367778
34.50494803814217	1	postlearning	nonviolation	7	B	70	scene	outdoor	1	0.7553658219985664
37.504895782098174	1	postlearning	nonviolation	7	B	83	scene	outdoor	1	0.7564152819104493
40.504856148269035	1	postlearning	nonviolation	7	B	80	scene	indoor	1	0.741344166919589
43.50482652615756	1	postlearning	violation	7	B	35	scene	outdoor	1	0.8694860767573118
46.504778123926364	1	postlearning	nonviolation	7	B	64	scene	indoor	1	0.7195350960828364
49.50474506104364	1	postlearning	nonviolation	7	B	52	scene	indoor	1	1.0585723621770742
52.5046988283284	1	postlearning	nonviolation	7	B	57	scene	outdoor	1	0.9405511706136168
55.504659058060504	1	postlearning	nonviolation	7	B	92	scene	outdoor	1	0.5936874328181148
58.50462425313889	1	postlearning	nonviolation	7	B	49	scene	indoor	1	0.6396916918456554
61.504580216947936	1	postlearning	nonviolation	7	B	91	scene	outdoor	1	0.7247346970252693
64.50454866606742	1	postlearning	violation	7	B	2	scene	outdoor	1	0.8877120739780366
67.50451160315424	1	postlearning	violation	7	B	32	scene	indoor	1	0.6748042991384864
70.50446050893515	1	postlearning	violation	7	B	21	scene	indoor	1	0.5378613839857279
73.50442253192887	1	postlearning	nonviolation	7	B	81	scene	indoor	1	0.6697729891166091
76.5043897619471	1	postlearning	violation	7	B	22	scene	indoor	1	0.5359257911331952
79.50434978911653	1	postlearning	violation	7	B	45	scene	outdoor	1	0.7679653018712997
82.50430519226937	1	postlearning	violation	7	B	25	scene	indoor	1	0.8190121948719025
85.5042725270614	1	postlearning	violation	7	B	3	scene	indoor	1	0.6000424628145993
88.50422196788712	1	postlearning	violation	7	B	10	scene	outdoor	1	0.6300960853695871
91.50418402301149	1	postlearning	nonviolation	7	B	93	scene	indoor	1	0.6361360051669179
94.504144245293	1	postlearning	nonviolation	7	B	78	scene	indoor	1	0.5170958465896547
97.50410322705284	1	postlearning	violation	7	B	20	scene	indoor	1	0.5100988098420203
100.50406384607777	1	postlearning	violation	7	B	27	scene	outdoor	1	0.5372632672078907
103.50402873288841	1	postlearning	nonviolation	7	B	68	scene	indoor	1	0.4652968794107437
106.50399509305134	1	postlearning	nonviolation	7	B	51	scene	outdoor	1	0.5992728932760656
109.50394589500502	1	postlearning	violation	7	B	44	scene	indoor	1	0.6303766332566738
112.5039162579924	1	postlearning	violation	7	B	16	scene	indoor	1	0.5754129560664296
115.50387979391962	1	postlearning	nonviolation	7	B	69	scene	indoor	0	0.5694445930421352
118.50382543494922	1	postlearning	nonviolation	7	B	54	scene	outdoor	1	0.6195010561496019
121.50379713624716	1	postlearning	violation	7	B	36	scene	outdoor	1	0.5665247677825391
124.50374993495643	1	postlearning	nonviolation	7	B	73	scene	indoor	1	0.596573106944561
127.50371855404228	1	postlearning	violation	7	B	18	scene	outdoor	1	0.7136002480983734
130.50366803491488	1	postlearning	violation	7	B	30	scene	indoor	1	0.5426617250777781
133.50363557320088	1	postlearning	nonviolation	7	B	67	scene	outdoor	1	0.5666872998699546
136.50358832394704	1	postlearning	nonviolation	7	B	72	scene	outdoor	1	0.5987424473278224
139.50354768708348	1	postlearning	violation	7	B	46	scene	indoor	1	1.0187799218110742
142.50351889990267	1	postlearning	nonviolation	7	B	96	scene	indoor	1	0.6938075562939048
145.5034776763059	1	postlearning	nonviolation	7	B	74	scene	indoor	1	0.6038545006886125
148.50343005917964	1	postlearning	violation	7	B	5	scene	outdoor	1	0.8808972369879484
151.50339162815362	1	postlearning	violation	7	B	31	scene	indoor	1	0.5509398197755218
154.5033642789349	1	postlearning	violation	7	B	23	scene	indoor	1	0.6089694341644645
157.50332608632743	1	postlearning	nonviolation	7	B	90	scene	outdoor	1	0.4940023138187826
160.50327149126682	1	postlearning	violation	7	B	13	scene	indoor	1	0.5550591750070453
163.50323105510324	1	postlearning	violation	7	B	1	scene	indoor	1	0.5220959670841694
166.5031926059164	1	postlearning	nonviolation	7	B	65	scene	indoor	1	0.5551346950232983
169.50315239001063	1	postlearning	nonviolation	7	B	88	scene	indoor	1	0.8201755722984672
172.50311345933002	1	postlearning	nonviolation	7	B	59	scene	indoor	1	0.6342146839015186
175.50307116331533	1	postlearning	violation	7	B	12	scene	outdoor	1	0.6512630009092389
178.5030427789316	1	postlearning	violation	7	B	11	scene	indoor	1	0.5392936733551323
181.50299173919484	1	postlearning	violation	7	B	4	scene	outdoor	1	0.5813387441448867
184.50295146508145	1	postlearning	violation	7	B	39	scene	indoor	1	0.5153798330575228
187.5029123751446	1	postlearning	nonviolation	7	B	58	scene	indoor	1	0.5684224991127849
190.50287246704102	1	postlearning	nonviolation	7	B	75	scene	outdoor	1	0.6024611419998109
193.50283394008878	1	postlearning	violation	7	B	14	scene	outdoor	1	0.6364972977899015
196.5027919518761	1	postlearning	nonviolation	7	B	53	scene	indoor	1	0.6555452360771596
199.5027610398829	1	postlearning	violation	7	B	6	scene	indoor	1	0.5555687472224236
202.50271242298183	1	postlearning	violation	7	B	41	scene	outdoor	1	0.7915014079771936
205.50268687820062	1	postlearning	violation	7	B	17	scene	outdoor	1	0.5856469566933811
208.5026441281661	1	postlearning	violation	7	B	26	scene	outdoor	1	0.6886922558769584
211.50259320624173	1	postlearning	nonviolation	7	B	50	scene	outdoor	1	0.4757440169341862
214.50256687728688	1	postlearning	violation	7	B	15	scene	outdoor	1	0.7227654089219868
217.5025166482665	1	postlearning	nonviolation	7	B	94	scene	indoor	1	0.7758176298812032
220.50247446494174	1	postlearning	nonviolation	7	B	95	scene	indoor	1	0.6248646331951022
223.5024315803312	1	postlearning	violation	7	B	28	scene	outdoor	1	0.694908996578306
226.5023944922723	1	postlearning	nonviolation	7	B	71	scene	indoor	1	0.6419388088397682
229.50236019631848	1	postlearning	nonviolation	7	B	61	scene	outdoor	1	0.5479842787608504
232.50231538107622	1	postlearning	violation	7	B	38	scene	indoor	1	0.4690218530595303
235.50227104919034	1	postlearning	nonviolation	7	B	76	scene	outdoor	1	0.6550677558407187
238.50224629696456	1	postlearning	nonviolation	7	B	89	scene	outdoor	1	0.6830895631574094
241.5022224541753	1	postlearning	violation	7	B	34	scene	outdoor	1	0.5501181450672448
244.50216123601425	1	postlearning	nonviolation	7	B	63	scene	indoor	1	0.5731773432344198
247.5021222028881	1	postlearning	violation	7	B	9	scene	indoor	1	0.7622202872298658
250.50207386910915	1	postlearning	nonviolation	7	B	82	scene	indoor	1	0.793268253095448
253.5020481119864	1	postlearning	nonviolation	7	B	85	scene	outdoor	1	0.7012924011796713
256.5020026532002	1	postlearning	nonviolation	7	B	62	scene	outdoor	1	0.574339427985251
259.5019563091919	1	postlearning	violation	7	B	24	scene	outdoor	1	0.5803129547275603
262.50191641133284	1	postlearning	violation	7	B	19	scene	outdoor	1	0.5794423408806324
265.48520208429545	1	postlearning	violation	7	B	42	scene	indoor	1	0.5581413679756224
268.4851635899395	1	postlearning	nonviolation	7	B	87	scene	outdoor	1	0.7321745110675693
271.4851185181178	1	postlearning	nonviolation	7	B	56	scene	indoor	1	0.5082200048491359
274.485076176934	1	postlearning	violation	7	B	47	scene	outdoor	1	0.4442695411853492
277.485036034137	1	postlearning	violation	7	B	48	scene	indoor	1	0.5372427478432655
280.48500110115856	1	postlearning	violation	7	B	8	scene	indoor	1	0.7063440629281104
283.4849617322907	1	postlearning	violation	7	B	7	scene	outdoor	1	0.6033808286301792
286.48492460418487	1	postlearning	nonviolation	7	B	66	scene	outdoor	1	0.6703490568324924
289.4848856832832	1	postlearning	violation	7	B	29	scene	outdoor	0	0.8684563338756561
292.48484943201765	1	postlearning	nonviolation	7	B	77	scene	outdoor	1	0.8834947771392763
295.4848096370697	1	postlearning	nonviolation	7	B	84	scene	outdoor	1	0.5125385611318052
298.48476566700265	1	postlearning	violation	7	B	40	scene	indoor	1	0.6145771159790456
