onset	duration	trial_type	condition	repetition	pairmate	pairID	category	subcategory	response_accuracy	response_time
13.500187503639607	1	postlearning	violation	2	n/a	28	face	male	1	0.5844479952938855
16.500147773884233	1	postlearning	violation	2	n/a	44	face	female	1	0.4945385819301009
19.500116820912808	1	postlearning	violation	2	n/a	25	face	female	1	0.5415705260820687
22.500069399829954	1	postlearning	violation	2	n/a	16	face	female	1	0.546627099160105
25.500027456786484	1	postlearning	violation	2	n/a	19	face	male	1	0.5636593941599131
28.499988772906367	1	postlearning	violation	2	n/a	42	face	female	1	0.5177001818083227
31.499952476005998	1	postlearning	violation	2	n/a	11	face	female	1	0.4947352199815214
34.499909047037356	1	postlearning	violation	2	n/a	10	face	male	1	0.8767833840101957
37.49987337272614	1	postlearning	violation	2	n/a	9	face	female	1	0.4998151729814708
40.499832775909454	1	postlearning	violation	2	n/a	41	face	male	1	0.5108573520556092
43.4997949176468	1	postlearning	violation	2	n/a	22	face	female	1	0.5368967694230378
46.49975021881983	1	postlearning	violation	2	n/a	15	face	male	1	0.4879381628707051
49.49970779474825	1	postlearning	violation	2	n/a	26	face	male	1	0.5439810361713171
52.499669395852834	1	postlearning	violation	2	n/a	42	face	female	1	0.4310185462236405
55.49964177096263	1	postlearning	violation	2	n/a	43	face	male	1	0.482053788844496
58.49960360303521	1	postlearning	violation	2	n/a	29	face	male	1	0.6750869178213179
61.4995626420714	1	postlearning	violation	2	n/a	3	face	female	1	0.5091264615766704
64.49951723590493	1	postlearning	violation	2	n/a	36	face	male	1	0.5671736709773539
67.49947061669081	1	postlearning	violation	2	n/a	34	face	male	1	0.5582204023376107
70.49942911695689	1	postlearning	violation	2	n/a	40	face	female	1	0.7302595106884837
73.49939287872984	1	postlearning	violation	2	n/a	23	face	female	1	0.8153031710535288
76.49935601605101	1	postlearning	violation	2	n/a	47	face	male	1	0.4592146589420736
79.49931535404177	1	postlearning	violation	2	n/a	5	face	male	1	0.4153784117661417
82.49929904798046	1	postlearning	violation	2	n/a	11	face	female	1	0.5072730937972665
85.49923738790676	1	postlearning	violation	2	n/a	34	face	male	1	0.5274589187465608
88.49920972902329	1	postlearning	violation	2	n/a	17	face	male	1	0.6364848488010466
91.499165720772	1	postlearning	violation	2	n/a	8	face	female	1	0.5945292231626809
94.49911301583052	1	postlearning	violation	2	n/a	1	face	female	1	0.465583702083677
97.49907685769722	1	postlearning	violation	2	n/a	1	face	female	1	0.6496208352036774
100.49904782697557	1	postlearning	violation	2	n/a	16	face	female	1	1.0266451118513942
103.49899858888242	1	postlearning	violation	2	n/a	32	face	female	1	0.6116903019137679
106.49896284099668	1	postlearning	violation	2	n/a	38	face	female	1	0.4987340997904539
109.4989200886339	1	postlearning	violation	2	n/a	20	face	female	1	0.5287763774394989
112.49887408409269	1	postlearning	violation	2	n/a	24	face	male	1	0.7458228757604957
115.49883677484469	1	postlearning	violation	2	n/a	21	face	female	1	0.5598612381145358
118.49879710469395	1	postlearning	violation	2	n/a	15	face	male	0	0.7089075152762234
121.4987655840814	1	postlearning	violation	2	n/a	9	face	female	1	0.9739234847947956
124.49872301891445	1	postlearning	violation	2	n/a	18	face	male	1	0.4389774710871279
127.4986743167974	1	postlearning	violation	2	n/a	28	face	male	1	0.8100298261269927
130.49863650696352	1	postlearning	violation	2	n/a	36	face	male	1	0.44105861987918615
133.4985972540453	1	postlearning	violation	2	n/a	7	face	male	1	0.41610203590244055
136.49855991685763	1	postlearning	violation	2	n/a	24	face	male	1	0.5761385709047318
139.49851717986166	1	postlearning	violation	2	n/a	4	face	male	1	0.4411815172061324
142.49847485590726	1	postlearning	violation	2	n/a	3	face	female	1	0.4892239579930902
145.4984380658716	1	postlearning	violation	2	n/a	33	face	male	1	0.4692646581679583
148.49839867698032	1	postlearning	violation	2	n/a	18	face	male	1	0.4963030871003866
151.4983553388156	1	postlearning	violation	2	n/a	17	face	male	1	0.5253355950117111
154.49831701489163	1	postlearning	violation	2	n/a	45	face	male	1	0.5663883569650352
157.4982766606845	1	postlearning	violation	2	n/a	29	face	male	1	0.5504236072301865
160.49824867583808	1	postlearning	violation	2	n/a	41	face	male	1	0.5734492707997559
163.49819496599957	1	postlearning	violation	2	n/a	48	face	female	0	0.5665114670991898
166.49815662484616	1	postlearning	violation	2	n/a	13	face	female	1	0.4135176162235439
169.4981159698218	1	postlearning	violation	2	n/a	6	face	female	1	0.4245945569127798
172.49806748097762	1	postlearning	violation	2	n/a	30	face	female	1	0.6676348829641938
175.4980353326537	1	postlearning	violation	2	n/a	44	face	female	1	0.5316708632744849
178.49799787579101	1	postlearning	violation	2	n/a	31	face	female	1	0.6357107441872358
181.49795550666752	1	postlearning	violation	2	n/a	4	face	male	1	0.7086277231574059
184.49791341880336	1	postlearning	violation	2	n/a	47	face	male	1	0.5647925138473511
187.49787753075358	1	postlearning	violation	2	n/a	46	face	female	1	0.6138295461423695
190.4978447589092	1	postlearning	violation	2	n/a	43	face	male	1	0.6608573161065578
193.49779282370582	1	postlearning	violation	2	n/a	30	face	female	1	0.4988948409445584
196.4977636248805	1	postlearning	violation	2	n/a	21	face	female	1	0.5079420148395002
199.4977100030519	1	postlearning	violation	2	n/a	14	face	male	1	0.5449989829212427
202.49767941609025	1	postlearning	violation	2	n/a	45	face	male	1	0.3900301307439804
205.49763992708176	1	postlearning	violation	2	n/a	26	face	male	1	0.4250670606270433
208.49759083706886	1	postlearning	violation	2	n/a	14	face	male	1	0.4021180947311223
211.49756301194432	1	postlearning	violation	2	n/a	37	face	female	1	0.5661493088118732
214.49752085795623	1	postlearning	violation	2	n/a	22	face	female	1	0.6781930876895785
217.49746872484684	1	postlearning	violation	2	n/a	39	face	female	1	0.5252391109243035
220.49742850195614	1	postlearning	violation	2	n/a	35	face	male	1	0.5702789020724595
223.49739112798127	1	postlearning	violation	2	n/a	23	face	female	1	0.5303218537010252
226.49735131300983	1	postlearning	violation	2	n/a	27	face	male	1	0.5103605939075351
229.49733445467427	1	postlearning	violation	2	n/a	27	face	male	1	0.4683810290880501
232.4972668159753	1	postlearning	violation	2	n/a	38	face	female	1	0.5314453169703484
235.49722742894662	1	postlearning	violation	2	n/a	33	face	male	1	0.4135129069909453
238.49718578997997	1	postlearning	violation	2	n/a	46	face	female	1	0.587529115844518
241.49714416265488	1	postlearning	violation	2	n/a	35	face	male	1	0.5255246683955193
244.49710790906101	1	postlearning	violation	2	n/a	19	face	male	1	0.4294786057434976
247.49706637486813	1	postlearning	violation	2	n/a	37	face	female	1	0.5956526701338589
250.4970246846788	1	postlearning	violation	2	n/a	20	face	female	1	0.6366884191520512
253.49698378983882	1	postlearning	violation	2	n/a	39	face	female	1	0.6037336569279432
256.49694469664246	1	postlearning	violation	2	n/a	48	face	female	1	0.5397781622596085
259.49691285705194	1	postlearning	violation	2	n/a	7	face	male	1	0.4618053906597197
262.4968674997799	1	postlearning	violation	2	n/a	2	face	male	1	0.6558505101129413
265.49683008063585	1	postlearning	violation	2	n/a	5	face	male	1	0.6108879623934627
268.4967933120206	1	postlearning	violation	2	n/a	25	face	female	1	0.5419303220696747
271.4967423886992	1	postlearning	violation	2	n/a	13	face	female	1	0.5239742160774767
274.4967071148567	1	postlearning	violation	2	n/a	12	face	male	1	0.5010068910196424
277.4966617738828	1	postlearning	violation	2	n/a	6	face	female	1	0.6980583341792226
280.4966334798373	1	postlearning	violation	2	n/a	8	face	female	1	0.5670843310654163
283.49658848484984	1	postlearning	violation	2	n/a	31	face	female	1	0.4821341000497341
286.4965383056551	1	postlearning	violation	2	n/a	12	face	male	1	0.4871820663101971
289.49650141363963	1	postlearning	violation	2	n/a	32	face	female	1	0.5432408894412221
292.49645857373247	1	postlearning	violation	2	n/a	2	face	male	1	0.5072637391276658
295.4964159866795	1	postlearning	violation	2	n/a	10	face	male	1	0.4772402653470635
298.4963795430958	1	postlearning	violation	2	n/a	40	face	female	1	0.4923412976786494
