onset	duration	trial_type	condition	response_accuracy	response_time
13.512644643895328	2.5	A	nonviolation	1	1.2590236673131583
16.512605756986886	2.5	B	nonviolation	0	1.439060332253575
19.51257259817794	2.5	B	violation	0	1.2480939887464046
22.5125245731324	2.5	B	violation	1	1.1811457597650588
25.512496321927763	2.5	A	nonviolation	1	1.2231759000569582
28.512445461936288	2.5	A	nonviolation	1	0.6792224003002048
31.512406587135054	2.5	A	violation	1	0.952261996921152
34.512371495831765	2.5	B	violation	1	1.1773008480668068
37.512325890827924	2.5	A	nonviolation	1	0.7303469930775464
40.512287669815116	2.5	B	violation	0	1.4403856070712209
43.51225063204765	2.5	A	violation	1	0.7044177018105984
46.51220845710486	2.5	B	nonviolation	1	1.3624648679979146
49.51217245124281	2.5	A	violation	1	0.877498640678823
52.51213849289343	2.5	A	violation	1	0.7514837053604424
55.51209499221295	2.5	B	violation	0	1.0115774599835277
58.51205648202449	2.5	A	violation	1	0.8626178922131658
61.51201401790603	2.5	B	nonviolation	0	1.273658765014261
64.51198506820947	2.5	A	nonviolation	1	0.5996654317714274
67.51193142822012	2.5	B	violation	1	1.0097407167777421
70.51189186889678	2.5	A	nonviolation	1	0.5557213840074837
73.51185875805096	2.5	A	violation	1	0.6168171181343496
76.51181932725012	2.5	A	violation	1	0.689735408872366
79.51177916908637	2.5	B	nonviolation	0	0.9068997730500996
82.51173317804933	2.5	A	nonviolation	1	1.1599415820091965
85.51170418318361	2.5	A	nonviolation	1	0.9219697047956288
88.5116575062275	2.5	B	violation	0	0.913893269840628
91.51161623187365	2.5	B	violation	1	1.1860730471089482
94.51158581487834	2.5	B	nonviolation	0	0.989096330013126
97.51153504289688	2.5	B	violation	1	1.2431494039483368
100.51149613317102	2.5	A	violation	1	0.6551792547106743
103.51146120810878	2.5	B	nonviolation	0	1.0392158078029752
106.49474002001809	2.5	A	violation	1	0.7949346858076751
109.4947026912123	2.5	A	violation	1	0.7479780218563974
112.49466347694396	2.5	A	violation	1	1.178022213280201
115.4946228498593	2.5	B	violation	1	1.3810622561722994
118.49458270799367	2.5	A	nonviolation	1	0.715095420833677
121.4945450471714	2.5	B	nonviolation	1	1.0381349348463118
124.49451402714476	2.5	B	violation	1	1.1981644607149065
127.49447284126656	2.5	B	nonviolation	0	1.4812120399437845
130.49442770984024	2.5	B	nonviolation	0	1.5992509252391756
133.49438957683742	2.5	B	nonviolation	1	0.9662904171273112
136.4943530978635	2.5	A	nonviolation	1	1.3943263613618908
139.49431081907824	2.5	B	nonviolation	1	1.1763761108741164
142.49427018500862	2.5	A	nonviolation	1	0.864414393901825
145.49422643193975	2.5	A	violation	1	0.6874565011821687
148.49419522704557	2.5	B	nonviolation	1	1.2084856908768415
151.49414919083938	2.5	B	violation	0	1.2825420419685545
154.494107816834	2.5	A	nonviolation	1	1.0385741083882751
157.494067997206	2.5	A	nonviolation	1	0.5506214327178895
160.49404076905918	2.5	B	nonviolation	0	0.7896463251672685
163.4939854149707	2.5	B	violation	1	0.8167008929885924
166.49394653225318	2.5	B	nonviolation	0	0.7717404388822615
169.49390595313162	2.5	A	violation	1	0.8347772690467536
172.4938695738092	2.5	A	violation	1	0.8228157712146641
175.49384193681183	2.5	A	nonviolation	1	0.9258453594520688
178.49379649013284	2.5	A	nonviolation	1	0.8328988710418344
181.4937485018745	2.5	B	violation	1	0.9878207319416106
184.49371661990884	2.5	B	nonviolation	0	0.7229759879410267
187.4936702712439	2.5	A	violation	1	0.8759007016196847
190.49363231100145	2.5	B	nonviolation	1	0.976052474230528
193.49359474610537	2.5	B	nonviolation	0	0.9280935530550778
196.49355023214596	2.5	A	nonviolation	1	0.5971429198980331
199.49351135687905	2.5	A	violation	1	0.5731830620206892
202.4934691661037	2.5	A	violation	1	0.6402226621285081
205.49342400301248	2.5	B	nonviolation	1	0.8742742910981178
208.4933957071044	2.5	A	nonviolation	1	0.6232943581417203
211.4933541351929	2.5	A	nonviolation	1	0.8083126759156585
214.49331631697717	2.5	B	violation	1	0.9843769110739232
217.4932802421972	2.5	A	nonviolation	1	0.874409546609968
220.49323253706098	2.5	B	nonviolation	0	1.107462203130126
223.49319158680737	2.5	B	violation	1	0.946507580112666
226.4931502030231	2.5	B	nonviolation	1	0.7805518968962133
229.4931065831333	2.5	B	violation	0	0.971588716842234
232.493078882806	2.5	A	nonviolation	1	0.6186194051988423
235.493033124134	2.5	B	violation	1	1.0246649240143595
238.49300468014556	2.5	A	violation	1	0.8556876727379858
241.49295008322224	2.5	B	violation	1	0.9057518686167896
244.49291658587757	2.5	B	violation	0	1.0437841219827533
247.49286718200887	2.5	B	violation	1	0.8338278951123357
250.4928402272053	2.5	B	nonviolation	0	0.9608502048067749
253.49279229622329	2.5	B	violation	1	1.0989036178216338
256.49275533901533	2.5	A	violation	1	1.0789445079863071
259.492706452962	2.5	B	violation	0	1.3459948878735304
262.4926786259748	2.5	B	nonviolation	0	0.7400252060033381
265.49264133023104	2.5	A	nonviolation	1	0.8100857855752109
268.49259745981544	2.5	A	violation	1	0.6101024472154677
271.4925513039343	2.5	B	nonviolation	0	0.9751535640098156
274.4925061459653	2.5	B	violation	0	0.7881692349910736
277.49246639804915	2.5	A	nonviolation	1	0.8972389218397439
280.4924315810204	2.5	A	violation	1	0.6082648378796875
283.49238691385835	2.5	B	nonviolation	0	0.9713167720474304
286.49235944217065	2.5	A	violation	1	0.6343419710174203
289.4923069132492	2.5	A	violation	1	0.5873939539305866
292.49226700281724	2.5	A	nonviolation	1	0.7384381992742419
295.4922300619073	2.5	A	nonviolation	1	1.0594745050184429
298.49219831218943	2.5	A	violation	1	0.9995092456229032
301.49214978795504	2.5	A	violation	1	1.067564057186246
304.49210463697085	2.5	A	nonviolation	1	0.6356024108827114
307.4920691330917	2.5	A	violation	1	0.9116360610350966
310.49202784197405	2.5	A	nonviolation	1	0.6036757049150765
313.49198892712593	2.5	B	violation	1	0.6907206107862294
316.4919539890252	2.5	A	violation	1	0.8837513760663569
319.4919040761888	2.5	B	nonviolation	1	0.7858030828647316
322.49186450382695	2.5	B	violation	0	1.0848454870283604
325.4918248918839	2.5	B	nonviolation	0	1.0018797293305397
328.49179231282324	2.5	A	violation	1	1.194917251355946
331.4917528568767	2.5	A	violation	1	0.705958679318428
334.4917065328918	2.5	A	nonviolation	1	0.5910025862976909
337.4916670462117	2.5	B	violation	1	0.7650405969470739
340.49162116926163	2.5	B	violation	1	0.935094075743109
343.4915853859857	2.5	A	nonviolation	1	0.5711303609423339
346.49154646601534	2.5	A	violation	1	0.6381666092202067
349.4915188658051	2.5	A	nonviolation	1	0.6561909900046885
352.4914729688317	2.5	B	nonviolation	1	0.866236659232527
355.4914206978865	2.5	B	nonviolation	0	1.3232884560711682
358.49139640387153	2.5	A	violation	1	0.9443190870806576
361.4913423429243	2.5	B	violation	1	1.0463004480116072
364.49130315007636	2.5	A	violation	1	1.0314068300649524
367.491274565924	2.5	A	violation	1	0.7654407368972898
370.49122350011015	2.5	B	violation	0	1.0004922300577164
373.4911793442443	2.5	B	nonviolation	0	0.8384813126176596
376.49114316096535	2.5	A	nonviolation	1	0.7434917092323303
379.4910971452482	2.5	B	nonviolation	0	0.8666163668967783
382.49105876917014	2.5	A	nonviolation	1	1.0296559100970626
385.49101716885343	2.5	B	violation	1	0.9726966624148191
388.49097580788657	2.5	A	nonviolation	1	0.8197434521280229
391.4909384842031	2.5	B	violation	1	0.8277755356393754
394.4908948368393	2.5	A	violation	1	0.8897404470480978
397.49085969384765	2.5	A	violation	1	0.7158592892810702
400.4908146839589	2.5	B	violation	1	1.176903846208006
403.49078715406364	2.5	B	nonviolation	1	1.1368669867515564
406.49073845194647	2.5	B	violation	1	1.1169791519641876
409.4906938630156	2.5	B	violation	0	0.8840215890668333
412.49065935611725	2.5	B	nonviolation	1	0.7190636177547276
415.4906163201668	2.5	B	nonviolation	1	1.0351067879237237
418.4905836158432	2.5	A	nonviolation	1	0.9221316613256932
421.490536455065	2.5	A	nonviolation	1	0.6281776279211044
424.49049134226516	2.5	A	nonviolation	1	1.1852278979495168
427.4904533261433	2.5	B	nonviolation	1	1.069267096929252
430.49042173707863	2.5	A	violation	1	0.977302137762308
433.4903752049432	2.5	B	nonviolation	0	0.9753466341644526
436.49033062299713	2.5	B	violation	0	1.1513931308872998
439.4902964648791	2.5	A	nonviolation	1	0.6804227801039815
442.4902544389479	2.5	B	nonviolation	1	0.8784680031239986
445.49021080508834	2.5	A	violation	1	0.6035191551782191
448.4901816472411	2.5	B	nonviolation	1	0.7545428159646691
451.4901283951476	2.5	A	violation	1	0.7495926506817341
454.490094628185	2.5	A	violation	1	0.5786254648119211
457.4900830090046	2.5	A	violation	1	0.7326417001895607
460.4900094671175	2.5	A	nonviolation	1	0.5717206550762057
463.4899796471	2.5	B	nonviolation	1	0.7787513039074838
466.4899273160845	2.5	A	violation	1	0.565798391122371
469.4898916990496	2.5	B	violation	0	0.9277163920924067
472.48985688900575	2.5	A	violation	1	0.7858695709146559
475.4898162838072	2.5	B	nonviolation	0	0.7029039254412055
478.489767128136	2.5	A	nonviolation	1	0.7369627389125526
481.48975922120735	2.5	B	nonviolation	0	0.8129673348739743
484.48968680901453	2.5	A	violation	1	0.9070448488928378
487.4896556409076	2.5	A	nonviolation	1	0.5870766201987863
490.48964512720704	2.5	B	violation	0	1.4660920766182244
493.4895893768408	2.5	B	violation	1	0.7191412243992091
496.4895286569372	2.5	B	nonviolation	1	0.6282038209028542
499.48949685180565	2.5	B	nonviolation	1	0.8152354364283383
502.48944312194357	2.5	A	violation	1	0.6762930410914123
505.48940544808283	2.5	B	violation	0	0.7433253051713109
508.4893667199649	2.5	A	nonviolation	1	0.7333659981377423
511.4893217729405	2.5	B	violation	1	0.6993789072148502
514.4892854741774	2.5	B	nonviolation	1	0.9094471558928491
517.4892456522211	2.5	A	nonviolation	1	0.5564879286102951
520.4892041902059	2.5	B	violation	1	0.8075324757955968
523.489159876015	2.5	B	nonviolation	0	1.0795721178874371
526.4891183488071	2.5	B	nonviolation	0	0.7896133852191269
529.4890779182315	2.5	A	nonviolation	1	0.5286819399334489
532.4890390178189	2.5	B	nonviolation	0	1.1827008211985228
535.4723243271002	2.5	B	violation	0	0.7464107968844473
538.4889604779892	2.5	A	violation	1	0.6367778801359236
541.4889288130216	2.5	A	nonviolation	1	0.7728014471940696
544.4888887931593	2.5	B	violation	n/a	n/a
547.4888390582055	2.5	A	nonviolation	1	1.1188985928893092
550.4887967142276	2.5	B	nonviolation	0	1.1259417557157576
553.4720841548407	2.5	A	violation	1	0.6476522153243423
556.472045884002	2.5	A	violation	1	0.8207513792440295
559.4720048038289	2.5	A	nonviolation	1	0.7457292331382632
562.4719598912634	2.5	A	nonviolation	1	0.8397776796482503
565.4719265950844	2.5	B	nonviolation	0	0.7768118758685887
568.4718832960352	2.5	A	violation	1	0.5637776488438249
571.471843924839	2.5	B	violation	1	0.880898104980588
574.4717984180897	2.5	B	violation	0	0.8448748518712819
577.4717606459743	2.5	B	violation	0	0.9389799470081924
580.4717181688176	2.5	A	nonviolation	1	0.6510299611836672
583.4716867171227	2.5	B	violation	1	0.9159946320578456
586.4716421612537	2.5	A	nonviolation	1	0.7261018687859178
