onset	duration	trial_type	condition	response_accuracy	response_time
13.507430132012816	2.5	B	violation	1	1.6876165649737231
16.504087314009663	2.5	A	violation	1	1.4260468650027178
19.504047219001226	2.5	B	violation	1	2.04100455500884
22.504008426010838	2.5	A	nonviolation	1	0.973121982999146
25.50396900199121	2.5	B	violation	0	1.1391652729944326
28.50392920500599	2.5	A	nonviolation	1	1.3722051449876744
31.503889673011145	2.5	A	violation	1	1.0822444569785148
34.50385026400909	2.5	A	nonviolation	1	0.9483503949886654
37.50381223799195	2.5	B	violation	1	1.2133297160035001
40.50376984701143	2.5	B	nonviolation	1	1.5683598629839253
43.503729210002355	2.5	B	violation	0	1.6674076250055805
46.503691760997754	2.5	B	violation	1	1.704452878999291
49.50365128199337	2.5	B	violation	1	1.6254160420212433
52.503609406994656	2.5	A	nonviolation	1	0.963526384002762
55.50357189800707	2.5	B	nonviolation	0	1.1395720680011436
58.50353145299596	2.5	A	nonviolation	1	1.3036032330128364
61.503491154988296	2.5	B	nonviolation	0	1.9496529210009608
64.50345135200769	2.5	B	violation	0	2.369687336002244
67.50341152699548	2.5	B	nonviolation	0	1.9607285780075472
70.50337286500144	2.5	B	nonviolation	0	1.372776800999418
73.50332835401059	2.5	A	violation	1	1.2868145199900027
76.50328825801263	2.5	A	violation	1	0.7238500279781874
79.50325091398555	2.5	A	violation	1	0.9338906600023621
82.50321053501102	2.5	B	violation	0	2.189927428989904
85.50317067300784	2.5	A	violation	1	1.1020351109909825
88.5031302110001	2.5	B	violation	0	1.5490952839900274
91.50309017300606	2.5	A	nonviolation	1	1.0660520899982655
94.50305228499927	2.5	B	nonviolation	0	1.411089094995987
97.50300955798592	2.5	A	nonviolation	1	1.1531407280126589
100.502969277004	2.5	B	nonviolation	0	1.718172027001856
103.50292890099807	2.5	A	nonviolation	1	1.1672156550048385
106.50288863200693	2.5	A	nonviolation	1	1.4732566319871694
109.50284825099516	2.5	A	nonviolation	1	1.275291878002463
112.50280773898704	2.5	A	violation	1	0.8813334860024042
115.50276557600591	2.5	B	nonviolation	1	1.7843766069854607
118.50272694800516	2.5	A	violation	1	1.3184176819922868
121.50268584498554	2.5	A	nonviolation	1	1.2084818520233966
124.5026459649962	2.5	A	nonviolation	1	0.9995039209898096
127.50260506701305	2.5	B	violation	1	1.3855488479894122
130.5025629340089	2.5	B	nonviolation	0	1.3075084799784236
133.5025307110045	2.5	B	nonviolation	0	1.200613199005602
136.50248277300852	2.5	B	nonviolation	1	1.6706684519886041
139.50244371200097	2.5	A	violation	1	2.0086299210088328
142.50240241899158	2.5	B	violation	0	1.606753109022975
145.50236215800396	2.5	A	violation	1	1.2127821870089974
148.50232160600714	2.5	B	nonviolation	1	1.5418266110063996
151.50228093599438	2.5	A	violation	1	1.20779115401092
154.5022405020136	2.5	A	violation	1	1.2819093259749934
157.5021997120057	2.5	B	violation	1	1.6408818750060163
160.50215931801358	2.5	A	violation	1	0.9100065069796984
163.5021182750061	2.5	A	violation	1	1.0079376079956999
166.50207816201146	2.5	B	violation	0	1.2440751929825635
169.5020375130116	2.5	A	nonviolation	1	1.1909759499831123
172.50199693298782	2.5	A	nonviolation	1	1.121152621024521
175.50195411100867	2.5	B	nonviolation	0	1.3221983879921029
178.50191552098838	2.5	B	violation	1	1.5402317190018948
181.50187450301013	2.5	B	violation	0	1.403275931981625
184.50183415898937	2.5	A	nonviolation	1	1.0953189349966124
187.50179338001183	2.5	B	nonviolation	0	1.4023685299907809
190.5017527900054	2.5	A	nonviolation	1	1.113407697994262
193.5017119800032	2.5	A	nonviolation	1	1.178450804989552
196.50166945101228	2.5	A	violation	1	0.7674849639879541
199.5016307760088	2.5	B	nonviolation	0	1.85854700798518
202.5015892800002	2.5	B	nonviolation	0	1.7435676520108243
205.50154873498832	2.5	B	violation	0	1.6316114790097345
208.50151355398705	2.5	A	violation	1	1.3416379110130947
211.50146784700337	2.5	B	violation	1	1.4526802430045793
214.50142532799512	2.5	A	nonviolation	1	0.8027310630131979
217.50138633800086	2.5	A	nonviolation	1	1.3467694559949452
220.50134542700837	2.5	A	violation	1	1.2478078159911092
223.5013041910133	2.5	A	violation	1	1.2598557159944903
226.501263890008	2.5	B	nonviolation	0	1.214869132003514
229.50122317799838	2.5	A	nonviolation	1	1.6569459860038478
232.50118229800137	2.5	B	violation	1	1.7689742780057711
235.50114686400048	2.5	B	nonviolation	0	1.1490109990118071
238.50110088300426	2.5	A	violation	1	1.1009185200091451
241.50106000099913	2.5	A	nonviolation	1	0.8651005830033682
244.50101919099686	2.5	B	nonviolation	0	1.5060011030000169
247.50097839301446	2.5	B	nonviolation	0	1.8601861779752653
250.50093746598574	2.5	B	nonviolation	0	1.5362287290045058
253.5008948039904	2.5	A	violation	1	1.2892887720081492
256.5008541439893	2.5	B	violation	1	1.2343021810229402
259.5008151489892	2.5	B	nonviolation	1	1.198350207996555
262.5007729800127	2.5	B	violation	0	2.325390906975372
265.50073313800385	2.5	B	nonviolation	0	1.6134303039871156
268.50069225698826	2.5	A	nonviolation	1	0.9234709280135576
271.5006512120017	2.5	A	violation	1	1.0855104349902829
274.50061026201	2.5	B	violation	0	1.6325522789848037
277.50056941900397	2.5	A	nonviolation	1	2.1135955509962514
280.50052772200434	2.5	A	violation	1	0.9006329099938739
283.50048758898635	2.5	B	violation	1	1.6316788530093618
286.50044645799784	2.5	A	violation	1	0.9607211379916408
289.500405341998	2.5	B	violation	0	1.1547609450062737
292.50036473499495	2.5	A	nonviolation	1	0.8608040680119302
295.50032347699744	2.5	A	violation	1	0.934848411998246
298.48361308101454	2.5	B	nonviolation	0	1.9255552039830943
301.4835721309937	2.5	B	violation	1	1.546599490015069
304.5002005760034	2.5	A	nonviolation	1	0.7439723539864644
307.4834901799913	2.5	B	nonviolation	0	1.3616807780053932
310.50011666701175	2.5	A	nonviolation	1	0.8790526109805796
313.48346033701085	2.5	A	violation	1	0.8906519549782388
316.500034355995	2.5	B	violation	1	1.9161442670156248
319.48332775899325	2.5	B	violation	1	1.9028522900189275
322.48328521000803	2.5	A	violation	1	0.9568844119785354
325.4832458079909	2.5	A	nonviolation	1	1.112943718006136
328.48320657698787	2.5	B	nonviolation	0	1.740882889018394
331.48316580799286	2.5	B	violation	0	1.5590058320085518
334.48312249401346	2.5	B	violation	0	1.1670549049740655
337.483083574014	2.5	A	nonviolation	1	1.0230973879806695
340.4830423879903	2.5	B	nonviolation	0	1.619124159013154
343.48300144998933	2.5	A	violation	1	1.0841712210094556
346.48296052499785	2.5	A	violation	1	0.6692129930015653
349.48292044698616	2.5	B	nonviolation	1	1.4212601230246946
352.4828786140133	2.5	A	violation	1	0.7962931249930989
355.4828374680073	2.5	A	nonviolation	1	1.0963361949834507
358.48279465798987	2.5	B	nonviolation	0	1.3623827210103627
361.48275344600546	2.5	A	nonviolation	1	0.9664220380072948
364.48271403298713	2.5	B	violation	1	1.5154595960048027
367.48267267699697	2.5	A	violation	1	1.2535120160027873
370.48263014500844	2.5	A	violation	1	1.2025477220013272
373.4825910369982	2.5	B	nonviolation	0	1.5285879469884094
376.482547194988	2.5	A	violation	1	0.996631662012078
379.4825088159996	2.5	A	violation	1	1.3085903100145515
382.4824679149897	2.5	B	nonviolation	0	1.7106186070013791
385.4824284309871	2.5	B	violation	1	1.5727489840064663
388.4823821980099	2.5	A	nonviolation	1	0.8167999099823646
391.482344485994	2.5	B	nonviolation	0	1.1488387180143036
394.4823015280126	2.5	B	violation	0	1.4378791060007643
397.48226235699263	2.5	B	nonviolation	n/a	n/a
400.48222104299936	2.5	B	violation	0	1.1519624970096631
403.4821783560037	2.5	A	violation	1	1.2810024269856513
406.48213883698924	2.5	A	nonviolation	1	0.6350455180217978
409.48209765099455	2.5	A	nonviolation	1	0.9660799030098132
412.48205624899134	2.5	B	violation	0	0.8910518030170351
415.4820151639869	2.5	A	nonviolation	1	0.8041738190222532
418.4819762129919	2.5	A	violation	1	0.7692081599961966
421.48193338798586	2.5	B	violation	1	1.219244609004818
424.4818922780105	2.5	B	nonviolation	0	0.9273581790039316
427.4818491619954	2.5	A	violation	1	0.7932621350046247
430.48180993399	2.5	A	nonviolation	1	0.9673184980056247
433.481774660002	2.5	B	violation	1	1.1004873880010564
436.481724895013	2.5	B	nonviolation	0	1.0444657789776102
439.481684510014	2.5	A	nonviolation	1	1.5775331889744848
442.4816455960099	2.5	B	nonviolation	0	0.9085191279882564
445.4816022049927	2.5	A	nonviolation	1	0.6415791040053591
448.48156114600715	2.5	A	violation	1	1.0075450769800227
451.48151993300417	2.5	B	nonviolation	0	1.3486727289855478
454.48148382198997	2.5	B	nonviolation	0	1.3027122470084578
457.4814395990106	2.5	A	violation	1	0.7696684989787173
460.4813982780033	2.5	A	violation	1	0.6207956440048292
463.48135739201103	2.5	A	nonviolation	1	0.8307957509823609
466.48131613899017	2.5	A	nonviolation	1	0.7968724509992171
469.48127527401084	2.5	A	violation	1	0.6258852919854689
472.48123407000094	2.5	A	nonviolation	1	0.7519612209871411
475.4811928739946	2.5	A	nonviolation	1	0.91399349499261
478.48115148299263	2.5	B	nonviolation	0	1.1540379810030572
481.48110884800553	2.5	B	nonviolation	1	1.3579964569944425
484.48106912098586	2.5	B	violation	0	1.241043788002571
487.4810296449869	2.5	A	nonviolation	1	1.665648187015904
490.48098704800935	2.5	A	nonviolation	1	0.9312095799832604
493.48094533299457	2.5	B	violation	0	1.25926678700489
496.48090418500936	2.5	A	violation	1	0.9202832790033426
499.4808604750142	2.5	B	violation	1	1.1028318089956883
502.480821604986	2.5	A	nonviolation	1	1.341344236017903
505.4807776719972	2.5	B	nonviolation	0	0.9834264570090454
508.48073678900255	2.5	A	violation	1	0.8454663819866255
511.4806978889973	2.5	B	violation	0	0.8845042030152399
514.4806571289955	2.5	B	violation	0	1.4165342889900785
517.4806157450075	2.5	A	nonviolation	1	2.217581609991612
520.4805744790065	2.5	A	violation	1	1.2976283629832324
523.480532896996	2.5	B	nonviolation	1	1.196665266004857
526.4804925039933	2.5	A	violation	1	0.7817043079994619
529.4804504030035	2.5	B	nonviolation	0	1.1737907970091328
532.4804182799999	2.5	A	violation	1	0.6837957059906329
535.4803682540078	2.5	B	violation	1	1.2198360890033657
538.4803248730021	2.5	B	violation	1	1.4737997640040703
541.4802861229982	2.5	A	violation	1	1.060914383007912
544.4802426359964	2.5	B	violation	1	1.2769631190167274
547.4802034799941	2.5	B	nonviolation	1	1.2449990939931013
550.4801624600077	2.5	A	nonviolation	1	0.6630325189908035
553.480121428991	2.5	A	nonviolation	1	0.6800781009951606
556.4800808599974	2.5	B	nonviolation	0	1.3796047090145294
559.4800384860138	2.5	B	nonviolation	0	0.9821671769896057
562.4799952500034	2.5	B	nonviolation	0	0.9266917849890888
565.4799588609894	2.5	A	nonviolation	1	0.953239438997116
568.4799152619962	2.5	A	violation	1	1.234286315011559
571.4798716949881	2.5	B	violation	1	1.2213282310112843
574.4798301009869	2.5	B	violation	1	1.257331216998864
577.4797890500049	2.5	B	nonviolation	0	1.367417472996749
580.4797508890043	2.5	A	violation	1	0.9654577159963084
583.4797059590055	2.5	B	violation	0	0.904496636998374
586.4796652669903	2.5	B	violation	1	1.055538754997542
