onset	duration	trial_type	condition	repetition	pairmate	pairID	category	subcategory	response_accuracy	response_time
13.514214275404813	1	prelearning	violation	1	A	27	scene	outdoor	1	0.588684449903667
16.514175903983414	1	prelearning	nonviolation	1	B	74	scene	outdoor	1	0.8227118924260141
19.514143257401887	1	prelearning	nonviolation	1	B	76	scene	outdoor	1	0.6107538156211376
22.514098966494203	1	prelearning	violation	1	B	29	scene	indoor	1	0.6167910685762763
25.514064487069845	1	prelearning	violation	1	B	32	scene	outdoor	1	0.5027514630928636
28.5140318647027	1	prelearning	violation	1	B	28	scene	indoor	1	0.5898580523207784
31.51401384081691	1	prelearning	nonviolation	1	B	79	scene	indoor	1	0.6408802922815084
34.513952541165054	1	prelearning	nonviolation	1	B	78	scene	indoor	0	0.4549505021423101
37.51390596944839	1	prelearning	violation	1	B	31	scene	outdoor	1	0.5039883237332106
40.513880991376936	1	prelearning	nonviolation	1	B	80	scene	outdoor	1	0.7090230919420719
43.51383539568633	1	prelearning	violation	1	A	32	scene	indoor	1	0.5670610694214702
46.51379885524511	1	prelearning	nonviolation	1	A	73	scene	indoor	1	0.6020974423736334
49.51375362370163	1	prelearning	violation	1	B	26	scene	indoor	1	0.561139571480453
52.51371021009982	1	prelearning	nonviolation	1	B	73	scene	indoor	1	0.5491849230602384
55.513673091307275	1	prelearning	nonviolation	1	A	80	scene	indoor	1	0.5852237688377501
58.51364083960652	1	prelearning	violation	1	B	25	scene	outdoor	1	0.7212508786469698
61.51362252980471	1	prelearning	nonviolation	1	A	75	scene	indoor	1	0.8292746301740408
64.51358581800015	1	prelearning	violation	1	A	26	scene	outdoor	1	0.5582472058013082
67.51352152135222	1	prelearning	violation	1	B	27	scene	indoor	1	0.44430501013994217
70.51349516771734	1	prelearning	nonviolation	1	A	78	scene	indoor	1	0.5384109886363149
73.49676513113081	1	prelearning	nonviolation	1	B	75	scene	outdoor	1	1.1251320997253058
76.49672818835825	1	prelearning	violation	1	A	25	scene	outdoor	1	0.4991752244532108
79.51343389693649	1	prelearning	violation	1	B	30	scene	outdoor	1	0.6644667470827699
82.49664889089763	1	prelearning	violation	1	A	29	scene	indoor	1	0.7432518918067217
85.49661247991025	1	prelearning	violation	1	A	31	scene	indoor	1	0.8562912717461586
88.496569131501	1	prelearning	violation	1	A	30	scene	outdoor	1	0.7863281844183803
91.496533353813	1	prelearning	nonviolation	1	A	77	scene	outdoor	1	1.1023716526106002
94.49650328233837	1	prelearning	violation	1	A	28	scene	indoor	1	0.4583956804126501
97.49646150879562	1	prelearning	nonviolation	1	A	74	scene	outdoor	1	0.5104437228292227
100.49642523098736	1	prelearning	nonviolation	1	B	77	scene	indoor	1	0.617477772757411
103.49638514220716	1	prelearning	nonviolation	1	A	79	scene	outdoor	1	0.5195190757513046
106.4963466282934	1	prelearning	nonviolation	1	A	76	scene	outdoor	1	0.6625273255631328
109.49630873743445	1	learning	nonviolation	2	A	73	scene	indoor	1	0.6455894857645035
112.49626733735205	1	learning	nonviolation	2	B	73	scene	indoor	1	0.8956181639805436
115.4962337622419	1	learning	violation	2	A	25	scene	outdoor	1	0.4676729748025537
118.49619198963045	1	learning	violation	2	B	25	scene	outdoor	1	0.5537133235484362
121.49615628365429	1	learning	violation	2	A	26	scene	outdoor	1	0.5766843901947141
124.49614728521557	1	learning	violation	2	B	26	scene	indoor	1	0.7287575174123049
127.49607622250916	1	learning	violation	2	A	27	scene	outdoor	1	0.5558308381587267
130.49605290498585	1	learning	violation	2	B	27	scene	indoor	1	0.587850634008646
133.49599809292707	1	learning	nonviolation	2	A	74	scene	outdoor	1	0.8649074528366327
136.49597961083055	1	learning	nonviolation	2	B	74	scene	outdoor	1	0.5979332039132714
139.4959189966321	1	learning	nonviolation	3	A	73	scene	indoor	1	0.5229850728064775
142.49588072299954	1	learning	nonviolation	3	B	73	scene	indoor	1	0.6760346153751016
145.495834547095	1	learning	violation	2	A	28	scene	indoor	1	0.5330740017816424
148.4958319477737	1	learning	violation	2	B	28	scene	indoor	1	0.6200200961902738
151.49577332939953	1	learning	nonviolation	3	A	74	scene	outdoor	1	0.7990906173363328
154.49572543613613	1	learning	nonviolation	3	B	74	scene	outdoor	1	0.6301871445029974
157.49568956624717	1	learning	violation	3	A	25	scene	outdoor	1	0.5681944927200675
160.49565363675356	1	learning	violation	3	B	25	scene	outdoor	1	0.4952630801126361
163.49561296775937	1	learning	nonviolation	2	A	75	scene	indoor	1	1.001295349560678
166.4955712836236	1	learning	nonviolation	2	B	75	scene	outdoor	1	0.8023116672411561
169.49553066678342	1	learning	nonviolation	4	A	73	scene	indoor	1	0.5333850551396608
172.49549188185486	1	learning	nonviolation	4	B	73	scene	indoor	1	0.6124262567609549
175.49549849331382	1	learning	nonviolation	2	A	76	scene	outdoor	1	0.7034114683046937
178.49543486814946	1	learning	nonviolation	2	B	76	scene	outdoor	1	0.9664752976968884
181.4954120349139	1	learning	nonviolation	2	A	77	scene	outdoor	1	0.5744513832032679
184.4953396823257	1	learning	nonviolation	2	B	77	scene	indoor	1	1.1115757077932358
187.49529844895005	1	learning	violation	3	A	28	scene	indoor	1	0.6446185391396284
190.49526121187958	1	learning	violation	3	B	28	scene	indoor	1	0.6465845797210932
193.49522354267535	1	learning	nonviolation	3	A	75	scene	indoor	1	0.7456904137507081
196.4952141745016	1	learning	nonviolation	3	B	75	scene	outdoor	1	0.9076989674940704
199.49514663033187	1	learning	violation	3	A	27	scene	outdoor	1	0.5677703637629747
202.4951075874269	1	learning	violation	3	B	27	scene	indoor	1	0.7778097344562411
205.49509618524465	1	learning	violation	4	A	28	scene	indoor	1	0.8588137095794082
208.4950280971825	1	learning	violation	4	B	28	scene	indoor	1	0.5788869606330991
211.4949974231422	1	learning	nonviolation	2	A	78	scene	indoor	1	0.9448562525212764
214.4949504090473	1	learning	nonviolation	2	B	78	scene	indoor	1	0.6799652809277177
217.4949124818668	1	learning	violation	3	A	26	scene	outdoor	1	0.5780040537938476
220.49486829061058	1	learning	violation	3	B	26	scene	indoor	1	0.6970476247370243
223.4948411984369	1	restudy	nonviolation	5	B	73	scene	indoor	1	0.6910747494548559
226.49478748813272	1	learning	nonviolation	4	A	75	scene	indoor	1	0.7201390350237489
229.4947497434914	1	learning	nonviolation	4	B	75	scene	outdoor	0	0.5981717277318239
232.49471205286682	1	learning	nonviolation	3	A	77	scene	outdoor	1	0.7352079767733812
235.49468563962728	1	learning	nonviolation	3	B	77	scene	indoor	1	0.587237574160099
238.49464907776562	1	restudy	nonviolation	6	B	73	scene	indoor	1	0.5322509128600359
241.4946360019967	1	learning	nonviolation	4	A	74	scene	outdoor	1	0.5342915803194046
244.4945593783632	1	learning	nonviolation	4	B	74	scene	outdoor	1	0.5523701468482614
247.4945181440562	1	learning	violation	4	A	25	scene	outdoor	1	0.5014093620702624
250.49449053686112	1	learning	violation	4	B	25	scene	outdoor	1	0.5024343207478523
253.4944473812357	1	restudy	nonviolation	5	B	75	scene	outdoor	1	0.7633977942168713
256.49440092034644	1	learning	nonviolation	3	A	76	scene	outdoor	1	0.6335577806457877
259.4943631151691	1	learning	nonviolation	3	B	76	scene	outdoor	1	0.5765612451359631
262.49433325976133	1	violation	violation	5	A	25	scene	outdoor	1	0.6355912880972028
265.49429886601865	1	violation	violation	1	X	25	face	male	1	0.5686291046440601
268.4942573290318	1	learning	violation	4	A	26	scene	outdoor	1	0.4286730494350195
271.4942365800962	1	learning	violation	4	B	26	scene	indoor	1	0.6396915763616562
274.49416685197497	1	learning	violation	4	A	27	scene	outdoor	1	0.8077641259878874
277.49412870407104	1	learning	violation	4	B	27	scene	indoor	1	0.5517994118854403
280.4940992547199	1	learning	violation	2	A	29	scene	indoor	1	0.5148289026692511
283.49405462294817	1	learning	violation	2	B	29	scene	indoor	1	0.6508723506703973
286.4940228126943	1	restudy	nonviolation	5	B	74	scene	outdoor	1	0.5439079506322742
289.4939708253369	1	violation	violation	5	A	26	scene	outdoor	1	0.6559585770592093
292.4939302196726	1	violation	violation	1	X	26	face	female	1	0.4959361115470529
295.4938942622393	1	learning	violation	2	A	30	scene	outdoor	1	0.5600345805287361
298.49385228194296	1	learning	violation	2	B	30	scene	outdoor	1	0.5549973687157035
301.4938540430739	1	learning	nonviolation	4	A	77	scene	outdoor	1	0.6830198988318443
304.49378096964216	1	learning	nonviolation	4	B	77	scene	indoor	1	1.0131436809897425
307.4937355592847	1	learning	violation	3	A	29	scene	indoor	1	0.7351704388856888
310.49370278418064	1	learning	violation	3	B	29	scene	indoor	1	0.6192281851544976
313.49365952983504	1	learning	nonviolation	3	A	78	scene	indoor	1	0.7891928432509303
316.4936172319576	1	learning	nonviolation	3	B	78	scene	indoor	1	0.5933154802769423
319.49358471482986	1	violation	violation	5	A	28	scene	indoor	1	1.000284757465124
322.4935387624428	1	violation	violation	1	X	28	face	female	1	0.6023776996880771
325.493516465649	1	restudy	nonviolation	5	B	77	scene	indoor	1	0.7834257027134299
328.4934683926404	1	restudy	nonviolation	6	B	74	scene	outdoor	1	0.6214633146300912
331.4934576973319	1	restudy	violation	5	B	26	scene	indoor	1	0.5994831146672368
334.4933935748413	1	restudy	violation	5	B	28	scene	indoor	1	0.5685397861525416
337.4933427451178	1	learning	nonviolation	4	A	76	scene	outdoor	1	0.6785929426550865
340.49330509826535	1	learning	nonviolation	4	B	76	scene	outdoor	1	0.6786095034331083
343.49326497502625	1	restudy	violation	5	B	25	scene	outdoor	1	0.7716696429997683
346.49323373101646	1	violation	violation	6	A	28	scene	indoor	1	0.5686966758221388
349.4931879639625	1	violation	violation	1	Y	28	face	female	1	0.7447469364851713
352.49315939750517	1	learning	nonviolation	2	A	79	scene	outdoor	1	0.49378034938126797
355.4931267267093	1	learning	nonviolation	2	B	79	scene	indoor	1	0.5448126150295138
358.4930663360283	1	restudy	nonviolation	6	B	75	scene	outdoor	1	0.7298687379807234
361.4930340908468	1	violation	violation	5	A	27	scene	outdoor	1	0.6428789384663105
364.4930049274117	1	violation	violation	1	X	27	face	female	1	0.5029293037950993
367.4929492566735	1	learning	violation	3	A	30	scene	outdoor	1	0.6749887503683567
370.49291002284735	1	learning	violation	3	B	30	scene	outdoor	1	0.5569714801385999
373.4928848417476	1	restudy	nonviolation	5	B	76	scene	outdoor	1	0.5730546116828918
376.4928350998089	1	learning	violation	4	A	29	scene	indoor	1	1.0321084884926677
379.49279832001776	1	learning	violation	4	B	29	scene	indoor	1	0.5701463744044304
382.49275360628957	1	violation	violation	6	A	26	scene	outdoor	1	0.5111880544573069
385.4927282640711	1	violation	violation	1	Y	26	face	female	1	0.4932351121678949
388.4926750781015	1	restudy	nonviolation	6	B	76	scene	outdoor	1	0.4612709442153573
391.4926629588008	1	restudy	nonviolation	6	B	77	scene	indoor	1	0.5572068421170115
394.49259575922036	1	learning	violation	2	A	31	scene	indoor	1	0.6153451669961214
397.49255823530257	1	learning	violation	2	B	31	scene	outdoor	1	0.5703822616487741
400.49251960497355	1	learning	nonviolation	3	A	79	scene	outdoor	1	0.4943965822458267
403.49247969780123	1	learning	nonviolation	3	B	79	scene	indoor	1	0.5714638670906425
406.4924487397074	1	violation	violation	5	A	29	scene	indoor	1	0.6144907400012016
409.49241247121245	1	violation	violation	1	X	29	face	female	1	0.7075320016592741
412.4923671176657	1	learning	nonviolation	4	A	78	scene	indoor	1	0.9905757186934352
415.4923232654109	1	learning	nonviolation	4	B	78	scene	indoor	1	0.5396228358149529
418.4922866532579	1	learning	violation	2	A	32	scene	indoor	1	0.5556549159809947
421.4922748142853	1	learning	violation	2	B	32	scene	outdoor	1	0.6526710782200098
424.49221176467836	1	learning	nonviolation	2	A	80	scene	indoor	1	0.5977375125512481
427.49216632265603	1	learning	nonviolation	2	B	80	scene	outdoor	1	0.9997822307050228
430.4921331275255	1	restudy	violation	5	B	27	scene	indoor	1	0.6088130529969931
433.49209921248263	1	restudy	violation	6	B	28	scene	indoor	1	0.8288499154150486
436.49205902125686	1	learning	violation	3	A	32	scene	indoor	1	0.6368854027241468
439.4920100858435	1	learning	violation	3	B	32	scene	outdoor	1	0.5649084085598588
442.49197021592414	1	learning	nonviolation	4	A	79	scene	outdoor	1	0.6579782990738751
445.4919307986274	1	learning	nonviolation	4	B	79	scene	indoor	1	0.5929377023130655
448.49188907165086	1	violation	violation	6	A	25	scene	outdoor	1	1.1980595355853438
451.4918578527868	1	violation	violation	1	Y	25	face	male	1	0.5710660740733147
454.49182252679014	1	violation	violation	6	A	27	scene	outdoor	1	0.492128599435091
457.49177093617624	1	violation	violation	1	Y	27	face	female	1	0.5161446686834097
460.4917321559042	1	learning	nonviolation	3	A	80	scene	indoor	1	0.6652152417227626
463.4917030697689	1	learning	nonviolation	3	B	80	scene	outdoor	1	0.5392492823302746
466.49166308250284	1	learning	violation	3	A	31	scene	indoor	1	0.5602849721908569
469.49161114450544	1	learning	violation	3	B	31	scene	outdoor	1	0.5682652536779642
472.49158509448165	1	restudy	violation	6	B	26	scene	indoor	1	0.5372906122356653
475.49153901077807	1	learning	violation	4	A	30	scene	outdoor	1	0.7124090436846018
478.491498278454	1	learning	violation	4	B	30	scene	outdoor	1	0.5474572256207466
481.49148202128714	1	learning	nonviolation	4	A	80	scene	indoor	1	0.5554795414209366
484.4914183076471	1	learning	nonviolation	4	B	80	scene	outdoor	1	0.4745393581688404
487.4913857365027	1	restudy	violation	5	B	29	scene	indoor	1	0.5795371932908893
490.49135045986617	1	violation	violation	5	A	30	scene	outdoor	1	0.5835962016135454
493.4913018830121	1	violation	violation	1	X	30	face	male	1	0.6496471026912332
496.4912602333352	1	learning	violation	4	A	31	scene	indoor	1	0.8096190774813294
499.49122131522745	1	learning	violation	4	B	31	scene	outdoor	1	0.5557341361418366
502.49118430167437	1	restudy	violation	6	B	25	scene	outdoor	1	0.5857676696032286
505.49115311913187	1	learning	violation	4	A	32	scene	indoor	1	0.6258000927045941
508.4911043867469	1	learning	violation	4	B	32	scene	outdoor	1	0.5178542621433735
511.4911080840975	1	restudy	nonviolation	5	B	80	scene	outdoor	1	0.4488533893600106
514.491025310941	1	restudy	nonviolation	5	B	78	scene	indoor	1	0.4979345332831144
517.4909878373146	1	violation	violation	6	A	29	scene	indoor	1	0.8099674936383963
520.490961894393	1	violation	violation	1	Y	29	face	female	1	0.6439944272860885
523.4742375984788	1	restudy	nonviolation	5	B	79	scene	indoor	1	0.9077203189954162
526.4741962524131	1	violation	violation	5	A	32	scene	indoor	1	0.7707674978300929
529.4741589548066	1	violation	violation	1	X	32	face	male	1	0.5837951926514506
532.4741120552644	1	restudy	violation	6	B	27	scene	indoor	1	0.5098274741321802
535.4740728372708	1	violation	violation	5	A	31	scene	indoor	1	0.5998909920454025
538.4740337608382	1	violation	violation	1	X	31	face	male	1	0.5669183079153299
541.4739997508004	1	restudy	violation	5	B	32	scene	outdoor	1	0.523962072096765
544.4739625519143	1	restudy	nonviolation	6	B	80	scene	outdoor	1	0.4689991353079677
547.4739245567471	1	restudy	violation	6	B	29	scene	indoor	1	0.6530405385419726
550.4738824656233	1	violation	violation	6	A	32	scene	indoor	1	0.5730784647166729
553.4738463200629	1	violation	violation	1	Y	32	face	male	1	0.5151250092312694
556.4738029157743	1	restudy	violation	5	B	30	scene	outdoor	1	0.5850920351222157
559.4737631324679	1	restudy	violation	5	B	31	scene	outdoor	1	0.5391960600391029
562.4737294269727	1	restudy	nonviolation	6	B	78	scene	indoor	1	0.8032423220574856
565.4736863188446	1	violation	violation	6	A	30	scene	outdoor	1	1.2242802260443568
568.473645536229	1	violation	violation	1	Y	30	face	male	1	0.5342998830601573
571.4736618166788	1	restudy	nonviolation	6	B	79	scene	indoor	1	0.5313048399984837
574.4735667584464	1	violation	violation	6	A	31	scene	indoor	1	0.6214001383632421
577.4735265299677	1	violation	violation	1	Y	31	face	male	1	0.4774418789893389
580.4734875401482	1	restudy	violation	6	B	32	scene	outdoor	1	0.5354729481041431
583.4734493307769	1	restudy	violation	6	B	30	scene	outdoor	1	0.8125156285241246
586.473411867395	1	restudy	violation	6	B	31	scene	outdoor	1	0.9644837183877826
