onset	duration	trial_type	condition	repetition	pairmate	pairID	category	subcategory	response_accuracy	response_time
13.505177548155189	1	prelearning	violation	1	B	11	scene	indoor	1	1.4576854286715388
16.505135004408658	1	prelearning	violation	1	B	12	scene	outdoor	1	0.5687266988679767
19.505092579871413	1	prelearning	nonviolation	1	B	63	scene	indoor	1	0.5277807731181383
22.505058750510216	1	prelearning	violation	1	B	9	scene	outdoor	1	0.3788101216778159
25.50501788407564	1	prelearning	violation	1	A	14	scene	outdoor	1	0.5038486709818244
28.504971759393808	1	prelearning	violation	1	A	15	scene	outdoor	1	0.6108954250812529
31.50493709743023	1	prelearning	nonviolation	1	A	64	scene	indoor	1	0.5469283610582352
34.50491432938725	1	prelearning	nonviolation	1	B	57	scene	indoor	1	0.5809481535106897
37.504877195693545	1	prelearning	violation	1	A	12	scene	indoor	1	0.5439876243472099
40.504822865128524	1	prelearning	violation	1	B	15	scene	indoor	1	0.7990436684340239
43.50479574408382	1	prelearning	violation	1	B	14	scene	indoor	1	0.586071252822876
46.50474694930018	1	prelearning	violation	1	A	13	scene	outdoor	1	0.3941188165917993
49.50470934528858	1	prelearning	nonviolation	1	B	64	scene	indoor	1	0.6611554715782404
52.50466770771891	1	prelearning	nonviolation	1	A	60	scene	indoor	1	0.6292015193030238
55.50463111605495	1	prelearning	nonviolation	1	A	62	scene	outdoor	1	0.4182326244190335
58.504600836895406	1	prelearning	nonviolation	1	A	61	scene	outdoor	1	0.6292681200429797
61.50457490421832	1	prelearning	violation	1	B	16	scene	outdoor	1	0.5952801629900932
64.50452067609875	1	prelearning	violation	1	B	13	scene	outdoor	1	0.7183492463082075
67.50447178352624	1	prelearning	nonviolation	1	B	61	scene	indoor	1	0.7593548092991114
70.50443765986711	1	prelearning	nonviolation	1	B	60	scene	outdoor	1	0.6114331362769008
73.50439561437815	1	prelearning	nonviolation	1	A	58	scene	indoor	1	0.9404750177636744
76.50437497533858	1	prelearning	nonviolation	1	B	59	scene	outdoor	1	0.5184938106685877
79.50433106254785	1	prelearning	nonviolation	1	A	57	scene	outdoor	1	0.6174867255613208
82.50429542176425	1	prelearning	nonviolation	1	A	63	scene	indoor	1	0.59257388766855
85.50424177478997	1	prelearning	violation	1	A	11	scene	indoor	1	0.881629747338593
88.50420735869557	1	prelearning	nonviolation	1	B	62	scene	outdoor	1	0.6796652087941766
91.50416665431112	1	prelearning	violation	1	A	10	scene	indoor	1	0.5977042848244309
94.50412341300398	1	prelearning	nonviolation	1	A	59	scene	outdoor	1	0.5047499090433121
97.50408957619221	1	prelearning	nonviolation	1	B	58	scene	outdoor	1	0.8687839889898896
100.5040568113327	1	prelearning	violation	1	B	10	scene	indoor	1	1.0448220958933234
103.50401162728669	1	prelearning	violation	1	A	9	scene	indoor	1	0.6418679989874363
106.50397277995943	1	prelearning	violation	1	A	16	scene	outdoor	1	0.6318601313978434
109.50392913538964	1	learning	nonviolation	2	A	57	scene	outdoor	1	0.4948704121634364
112.50390491727741	1	learning	nonviolation	2	B	57	scene	indoor	1	0.5549688916653395
115.50384789612144	1	learning	violation	2	A	9	scene	indoor	1	0.583022478967905
118.50381465815008	1	learning	violation	2	B	9	scene	outdoor	1	0.5650275265797973
121.5037761889398	1	learning	nonviolation	2	A	58	scene	indoor	1	0.6330912681296468
124.50373662728815	1	learning	nonviolation	2	B	58	scene	outdoor	1	0.6011431477963924
127.50371555611493	1	learning	violation	2	A	10	scene	indoor	1	0.6201617773622274
130.5036559989676	1	learning	violation	2	B	10	scene	indoor	1	0.655224691145122
133.50362033490092	1	learning	violation	2	A	11	scene	indoor	1	0.6341780666261911
136.50358897075057	1	learning	violation	2	B	11	scene	indoor	1	0.6222961936146021
139.5035470481962	1	learning	violation	2	A	12	scene	indoor	1	0.7903332551941276
142.5035043992102	1	learning	violation	2	B	12	scene	outdoor	1	0.578376461751759
145.50346354953942	1	learning	violation	3	A	9	scene	indoor	1	0.6514243753626943
148.50343368947506	1	learning	violation	3	B	9	scene	outdoor	1	0.6344408607110381
151.50338682346046	1	learning	nonviolation	3	A	57	scene	outdoor	1	1.26548867020756
154.50334510579702	1	learning	nonviolation	3	B	57	scene	indoor	1	0.5475393999367952
157.5033074421808	1	learning	violation	3	A	11	scene	indoor	1	0.5744985053315759
160.50327029079202	1	learning	violation	3	B	11	scene	indoor	1	0.6346081076189876
163.50323238782585	1	learning	violation	2	A	13	scene	outdoor	1	0.9166482258588076
166.50319318473342	1	learning	violation	2	B	13	scene	outdoor	1	0.6046857992187142
169.50315241049975	1	learning	nonviolation	3	A	58	scene	indoor	1	0.6047277199104428
172.50311349052936	1	learning	nonviolation	3	B	58	scene	outdoor	1	0.7147437846288085
175.50307250209153	1	learning	violation	3	A	10	scene	indoor	1	0.7278262563049793
178.50304194167256	1	learning	violation	3	B	10	scene	indoor	1	0.6598392501473427
181.50300276093185	1	learning	nonviolation	2	A	59	scene	outdoor	1	0.7458029668778181
184.5029603047296	1	learning	nonviolation	2	B	59	scene	outdoor	1	0.9529263051226736
187.5029164822772	1	learning	violation	2	A	14	scene	outdoor	1	0.6999690551310778
190.5028839884326	1	learning	violation	2	B	14	scene	indoor	1	0.4929678291082382
193.50284362956882	1	learning	nonviolation	4	A	57	scene	outdoor	1	0.5420491797849536
196.50279936287552	1	learning	nonviolation	4	B	57	scene	indoor	1	0.9240835569798946
199.50277254264802	1	learning	violation	4	A	11	scene	indoor	1	0.4921080963686109
202.50272849481556	1	learning	violation	4	B	11	scene	indoor	1	0.5960916150361301
205.5026814555749	1	learning	nonviolation	2	A	60	scene	indoor	1	0.5352062564343214
208.50264717452228	1	learning	nonviolation	2	B	60	scene	outdoor	1	0.5012738527730107
211.50260352250191	1	learning	nonviolation	4	A	58	scene	indoor	1	0.5072808274999261
214.502571253106	1	learning	nonviolation	4	B	58	scene	outdoor	1	0.5313161201775074
217.50253355782482	1	learning	violation	3	A	12	scene	indoor	1	0.5753547642379999
220.5024865847081	1	learning	violation	3	B	12	scene	outdoor	1	0.5493203867226839
223.50244071986526	1	learning	violation	2	A	15	scene	outdoor	1	0.8504115920513868
226.50240154750645	1	learning	violation	2	B	15	scene	indoor	1	1.088487713597715
229.50236654933545	1	learning	violation	4	A	9	scene	indoor	1	0.5914500970393419
232.50232905521992	1	learning	violation	4	B	9	scene	outdoor	1	0.6695436518639326
235.50229365099221	1	learning	violation	4	A	12	scene	indoor	1	0.5635961908847094
238.50225204881284	1	learning	violation	4	B	12	scene	outdoor	1	0.618636810220778
241.50221589114517	1	learning	nonviolation	3	A	59	scene	outdoor	1	0.7016505124047399
244.50217085983604	1	learning	nonviolation	3	B	59	scene	outdoor	1	0.7077218983322382
247.50214161444455	1	learning	nonviolation	2	A	61	scene	outdoor	1	0.6337478160858154
250.50209856126457	1	learning	nonviolation	2	B	61	scene	indoor	1	0.6347942613065243
253.50205399189144	1	learning	violation	2	A	16	scene	outdoor	1	0.5328370127826929
256.5020204046741	1	learning	violation	2	B	16	scene	outdoor	1	0.5728715155273676
259.5019735069945	1	learning	violation	3	A	14	scene	outdoor	1	0.6369171394035219
262.501933622174	1	learning	violation	3	B	14	scene	indoor	1	0.5689589492976665
265.50190259609366	1	learning	violation	3	A	13	scene	outdoor	1	0.7639960609376429
268.5018601519987	1	learning	violation	3	B	13	scene	outdoor	1	0.5699861347675323
271.50181506201625	1	learning	violation	4	A	10	scene	indoor	1	0.5530774854123592
274.50177481304854	1	learning	violation	4	B	10	scene	indoor	1	0.6161184823140502
277.5017374791205	1	learning	violation	4	A	14	scene	outdoor	1	0.7281559519469738
280.50170962233096	1	learning	violation	4	B	14	scene	indoor	1	0.5341836046427488
283.50166197679937	1	violation	violation	5	A	11	scene	indoor	1	0.6141540119424462
286.5016366578638	1	violation	violation	1	X	11	face	female	1	0.5752564519643784
289.5015826132148	1	restudy	nonviolation	5	B	57	scene	indoor	1	0.5373131167143583
292.5015458408743	1	violation	violation	5	A	12	scene	indoor	1	0.5433538639917971
295.50151942949736	1	violation	violation	1	X	12	face	male	1	0.5042989617213607
298.50146472174674	1	learning	nonviolation	3	A	60	scene	indoor	1	0.582437944598496
301.50142554938793	1	learning	nonviolation	3	B	60	scene	outdoor	1	0.7214832454919815
304.50138295907533	1	learning	nonviolation	4	A	59	scene	outdoor	1	0.5415135882794857
307.50135709904134	1	learning	nonviolation	4	B	59	scene	outdoor	1	0.538544756360352
310.48462861496955	1	restudy	nonviolation	6	B	57	scene	indoor	1	0.549252862110734
313.4845884051174	1	restudy	nonviolation	5	B	58	scene	outdoor	1	0.5553067810833454
316.48454959690565	1	learning	nonviolation	3	A	61	scene	outdoor	1	0.4703476196154952
319.5011938875541	1	learning	nonviolation	3	B	61	scene	indoor	1	0.9447094993665814
322.4844714784995	1	violation	violation	5	A	10	scene	indoor	1	0.6464267661795021
325.5011061942205	1	violation	violation	1	X	10	face	female	1	0.660798467695713
328.4844008963555	1	violation	violation	5	A	9	scene	indoor	1	0.5745011242106557
331.4843582194298	1	violation	violation	1	X	9	face	male	1	0.5165173392742872
334.4843135550618	1	learning	violation	3	A	15	scene	outdoor	1	0.5555937821045518
337.48428633809084	1	learning	violation	3	B	15	scene	indoor	1	0.5326017811894417
340.48424235824496	1	learning	violation	3	A	16	scene	outdoor	1	0.4846606384962797
343.48420301452285	1	learning	violation	3	B	16	scene	outdoor	1	0.6157027687877417
346.4841626305133	1	learning	nonviolation	2	A	62	scene	outdoor	1	0.7837393684312701
349.4841170022264	1	learning	nonviolation	2	B	62	scene	outdoor	1	0.6447891648858786
352.48408402036875	1	restudy	violation	5	B	11	scene	indoor	1	0.5997428530827165
355.4840470319614	1	restudy	nonviolation	6	B	58	scene	outdoor	1	0.5088589070364833
358.48400213010615	1	violation	violation	5	A	14	scene	outdoor	1	0.6969374939799309
361.4839653018862	1	violation	violation	1	X	14	face	female	1	0.6959416838362813
364.4839283488691	1	learning	violation	4	A	13	scene	outdoor	1	0.6019131103530526
367.4838858377189	1	learning	violation	4	B	13	scene	outdoor	1	0.5760210268199444
370.48384604975575	1	restudy	violation	5	B	12	scene	outdoor	1	0.4860582975670695
373.4838177645579	1	violation	violation	6	A	11	scene	indoor	1	0.5520705133676529
376.4837700817734	1	violation	violation	1	Y	11	face	female	1	0.5521388994529843
379.483730500564	1	learning	nonviolation	4	A	60	scene	indoor	1	0.5200993688777089
382.48369033448404	1	learning	nonviolation	4	B	60	scene	outdoor	1	0.4991423664614558
385.48365514352923	1	restudy	violation	5	B	9	scene	outdoor	1	0.5062534203752875
388.48361488990486	1	restudy	violation	5	B	10	scene	indoor	1	0.6252988046035171
391.4835766609758	1	restudy	nonviolation	5	B	59	scene	outdoor	1	0.5083318334072828
394.4835338657722	1	learning	nonviolation	3	A	62	scene	outdoor	1	0.4673774093389511
397.48349272832274	1	learning	nonviolation	3	B	62	scene	outdoor	1	0.5124124297872186
400.48345648869866	1	learning	nonviolation	4	A	61	scene	outdoor	1	0.5344547275453806
403.48341305833316	1	learning	nonviolation	4	B	61	scene	indoor	1	0.6254938868805766
406.4833809416741	1	learning	violation	4	A	15	scene	outdoor	1	0.5135425319895148
409.48334486410016	1	learning	violation	4	B	15	scene	indoor	1	0.5595678510144353
412.4832974653691	1	violation	violation	6	A	12	scene	indoor	1	0.5726162753999233
415.4832596378401	1	violation	violation	1	Y	12	face	male	1	0.5366365760564804
418.4832192994654	1	restudy	nonviolation	5	B	60	scene	outdoor	1	0.603695104829967
421.48317888751626	1	violation	violation	6	A	9	scene	indoor	1	0.6157380603253841
424.48313893750316	1	violation	violation	1	Y	9	face	male	1	0.5037740636616945
427.4831456607208	1	restudy	violation	6	B	11	scene	indoor	1	0.6226920457556844
430.48306254483765	1	learning	violation	4	A	16	scene	outdoor	1	0.4958518436178565
433.48306495603174	1	learning	violation	4	B	16	scene	outdoor	1	0.4898447124287486
436.48300143424416	1	restudy	violation	5	B	14	scene	indoor	1	0.6519230660051107
439.4829442063346	1	learning	nonviolation	2	A	63	scene	indoor	1	0.9349699160084128
442.48290069587534	1	learning	nonviolation	2	B	63	scene	indoor	1	0.6090219086036086
445.4828642001376	1	violation	violation	5	A	16	scene	outdoor	1	0.5830590659752488
448.48283856827766	1	violation	violation	1	X	16	face	male	1	0.6480879345908761
451.48279711417854	1	restudy	nonviolation	6	B	60	scene	outdoor	1	0.5871216868981719
454.4827632484957	1	learning	nonviolation	2	A	64	scene	indoor	1	0.6811547940596938
457.48271653428674	1	learning	nonviolation	2	B	64	scene	indoor	1	0.6902044527232647
460.48267352115363	1	violation	violation	5	A	13	scene	outdoor	1	0.8822438186034559
463.4826293271035	1	violation	violation	1	X	13	face	male	1	0.5622914321720601
466.482590678148	1	restudy	violation	5	B	16	scene	outdoor	1	0.6283274600282311
469.4825510513037	1	restudy	violation	6	B	12	scene	outdoor	1	0.7363658230751753
472.4825162058696	1	learning	nonviolation	3	A	64	scene	indoor	1	0.5884023066610098
475.4824801599607	1	learning	nonviolation	3	B	64	scene	indoor	1	0.5504418583586812
478.4824478188529	1	violation	violation	6	A	10	scene	indoor	1	0.5404694136232138
481.4823973523453	1	violation	violation	1	Y	10	face	female	1	0.5595270646736026
484.4823532188311	1	restudy	nonviolation	6	B	59	scene	outdoor	1	0.5025689182803035
487.48233571555465	1	restudy	violation	6	B	9	scene	outdoor	1	0.6785847581923008
490.4822810497135	1	restudy	nonviolation	5	B	61	scene	indoor	1	0.6166477771475911
493.4822399318218	1	learning	nonviolation	4	A	62	scene	outdoor	1	0.7096845973283052
496.4821954229848	1	learning	nonviolation	4	B	62	scene	outdoor	1	0.5017258338630199
499.48217296600336	1	learning	nonviolation	4	A	64	scene	indoor	1	0.5767566990107298
502.4821190843359	1	learning	nonviolation	4	B	64	scene	indoor	1	0.5507947048172355
505.4820891730488	1	violation	violation	5	A	15	scene	outdoor	1	0.5918410709127784
508.48203701525927	1	violation	violation	1	X	15	face	female	1	0.610887604765594
511.4820001171902	1	violation	violation	6	A	16	scene	outdoor	1	0.7249297741800547
514.4819581722841	1	violation	violation	1	Y	16	face	male	1	0.5779345016926527
517.4819201417267	1	restudy	nonviolation	5	B	64	scene	indoor	1	0.7500067092478275
520.4818937685341	1	learning	nonviolation	3	A	63	scene	indoor	1	0.6779784932732582
523.481841695495	1	learning	nonviolation	3	B	63	scene	indoor	1	0.5820904970169067
526.4817997124046	1	restudy	violation	5	B	13	scene	outdoor	1	0.58812918048352
529.4817644963041	1	restudy	violation	6	B	10	scene	indoor	1	0.6621695412322879
532.4817243497819	1	violation	violation	6	A	14	scene	outdoor	1	0.7741960696876049
535.4816844165325	1	violation	violation	1	Y	14	face	female	1	0.5492100669071078
538.4816434141248	1	learning	nonviolation	4	A	63	scene	indoor	1	0.6333038415759802
541.4816133258864	1	learning	nonviolation	4	B	63	scene	indoor	1	0.5363203538581729
544.4815670698881	1	restudy	nonviolation	6	B	64	scene	indoor	1	0.6123601142317057
547.4815357094632	1	restudy	nonviolation	6	B	61	scene	indoor	1	0.6353924693539739
550.4815022516996	1	restudy	nonviolation	5	B	63	scene	indoor	1	0.5214334484189749
553.4814485805109	1	restudy	violation	5	B	15	scene	indoor	1	0.5814839899539948
556.4814096270129	1	restudy	violation	6	B	16	scene	outdoor	1	0.7565234014764428
559.4813697468489	1	restudy	nonviolation	5	B	62	scene	outdoor	1	0.7455112002789974
562.4813441699372	1	violation	violation	6	A	15	scene	outdoor	1	0.5825875662267208
565.4812901066616	1	violation	violation	1	Y	15	face	female	1	0.5106424707919359
568.4812659639865	1	violation	violation	6	A	13	scene	outdoor	1	0.5936709484085441
571.4812181759626	1	violation	violation	1	Y	13	face	male	1	0.5207161670550704
574.4811805039644	1	restudy	violation	6	B	14	scene	indoor	1	0.573751368559897
577.4811321301386	1	restudy	nonviolation	6	B	63	scene	indoor	1	0.6927948826923966
580.4810894234106	1	restudy	violation	6	B	15	scene	indoor	1	0.7308564865961671
583.4810533951968	1	restudy	nonviolation	6	B	62	scene	outdoor	1	0.5418821768835187
586.481012695469	1	restudy	violation	6	B	13	scene	outdoor	1	0.5449230680242181
