onset	duration	trial_type	condition	response_accuracy	response_time
13.513713516993446	2.5	A	violation	1	1.151089381892234
16.513673638924953	2.5	B	nonviolation	1	1.9731224400456997
19.513653225032613	2.5	A	nonviolation	1	1.026167092844844
22.51359062292613	2.5	B	violation	0	1.5552064299117774
25.513557293917984	2.5	B	nonviolation	1	1.6322440621443093
28.513509341049943	2.5	B	nonviolation	1	1.4442848470062015
31.513472283026204	2.5	A	nonviolation	1	0.7363114729523659
34.513431441038854	2.5	A	nonviolation	1	1.0253689968958497
37.51339170103893	2.5	B	violation	1	1.3934083660133183
40.513354138936855	2.5	A	violation	1	1.5004199529066682
43.49664354184642	2.5	B	violation	0	1.5141525610815734
46.49659865000285	2.5	B	violation	1	1.3971974218729883
49.49655654001981	2.5	B	violation	0	1.55724046099931
52.4965327619575	2.5	A	nonviolation	1	1.1532690739259124
55.49648293387145	2.5	B	nonviolation	0	1.4443194819614291
58.49645405705087	2.5	A	violation	1	1.0163434939458966
61.49640815705061	2.5	B	nonviolation	1	1.4773951859679073
64.49636734183878	2.5	B	nonviolation	0	1.479436018038541
67.49633579491638	2.5	A	violation	1	0.8914634219836444
70.49629964190535	2.5	A	nonviolation	1	0.9565018960274756
73.49625506484881	2.5	B	violation	1	1.6675093690864742
76.49620938999578	2.5	A	violation	1	1.476591574959457
79.49617501092143	2.5	A	violation	1	1.2086270570289344
82.49612922384405	2.5	B	nonviolation	0	1.3996751711238176
85.49609078699723	2.5	A	nonviolation	1	1.3826391228940338
88.49605426285416	2.5	B	violation	1	1.3757594991475344
91.4960160320625	2.5	B	nonviolation	1	1.5687837989535185
94.49597099889071	2.5	B	nonviolation	0	1.7968296920880675
97.49593190103771	2.5	A	violation	1	0.9588743408676236
100.49589674500747	2.5	B	violation	1	1.2518006130121648
103.49586677993649	2.5	A	nonviolation	1	0.974939432926476
106.49583207000978	2.5	A	nonviolation	1	0.9549706480465828
109.49578071595171	2.5	A	violation	1	1.0729816020466387
112.49574729497543	2.5	B	nonviolation	0	1.4720643928740174
115.49570200801828	2.5	A	violation	1	1.0461055890191346
118.49565558694306	2.5	A	violation	1	0.8251526639796793
121.49561442388222	2.5	B	violation	1	1.3571940001565963
124.4955896260217	2.5	A	nonviolation	1	1.0902219829149544
127.49553752783686	2.5	B	nonviolation	0	1.2982747091446072
130.49551734188572	2.5	B	violation	1	1.4912930000573397
133.49545792792924	2.5	B	nonviolation	1	1.6973485539201647
136.4954301728867	2.5	B	violation	1	1.9193780899513515
139.49538830597885	2.5	A	violation	1	1.110426573082805
142.4953584859613	2.5	A	nonviolation	1	1.023455013986677
145.49531306698918	2.5	A	violation	1	1.7194983928930014
148.49532484286462	2.5	B	violation	1	1.5015004181768743
151.49522615084425	2.5	A	nonviolation	1	1.0095851821824908
154.495189626934	2.5	A	nonviolation	1	0.8996201299596578
157.49515328602862	2.5	A	violation	1	1.3516828389838338
160.49510212684982	2.5	A	nonviolation	1	0.950714278034866
163.49507174594328	2.5	B	violation	0	1.532738127047196
166.49502437701452	2.5	B	nonviolation	1	1.4837947329506278
169.49499990302138	2.5	A	nonviolation	1	0.9788121900055556
172.49495090497658	2.5	A	nonviolation	1	1.444742637919262
175.49490477889773	2.5	B	nonviolation	1	1.9059096600394696
178.4948623329401	2.5	B	violation	1	0.9869550040457398
181.49482260504737	2.5	B	violation	1	1.920992546947673
184.49478337191974	2.5	A	violation	1	0.981035355012864
187.49474641401318	2.5	B	nonviolation	0	1.3660693869460374
190.49470922793262	2.5	A	nonviolation	1	1.222114192089066
193.49466276401654	2.5	B	nonviolation	1	1.3730470759328457
196.49462346499783	2.5	A	violation	1	0.9851942870300264
199.49457964999598	2.5	A	violation	1	0.7852424208540469
202.49454101291485	2.5	B	violation	1	1.2982803629711268
205.49450894491744	2.5	A	violation	1	1.0873144930228589
208.4944621049799	2.5	B	nonviolation	1	1.2033536869566888
211.49442090699452	2.5	B	nonviolation	0	1.4983978848904371
214.49439141503532	2.5	A	violation	1	1.0274352480191735
217.49434033897703	2.5	B	nonviolation	1	1.5384799579624089
220.4942992690485	2.5	B	nonviolation	0	1.5945214538369328
223.49426116095856	2.5	B	violation	1	1.5585638040211052
226.4942279220559	2.5	B	violation	0	1.4906043629162014
229.49417993891984	2.5	A	nonviolation	1	0.9585781069472432
232.4941397809889	2.5	A	nonviolation	1	0.8266790090128779
235.49409881001338	2.5	A	nonviolation	1	1.280726445838809
238.4940602709539	2.5	B	violation	1	1.4926789819728583
241.49402689002451	2.5	B	violation	1	1.5028058008756489
244.49398589693007	2.5	B	violation	1	1.3738394910469651
247.49393449001946	2.5	A	violation	1	0.8589213429950178
250.49390432192013	2.5	A	nonviolation	1	1.2839195409324022
253.49386192602105	2.5	B	nonviolation	1	1.963960011024028
256.4938188300003	2.5	B	nonviolation	1	1.2699867428746074
259.4937781179324	2.5	B	violation	1	1.3590523269958794
262.49374208506197	2.5	A	violation	1	1.0090819969773293
265.49369808402844	2.5	A	violation	1	1.0530662059318274
268.4936544219963	2.5	A	nonviolation	1	1.1341750179417431
271.4936225018464	2.5	A	nonviolation	1	1.1802059861365706
274.4935830349568	2.5	B	nonviolation	1	1.3642452259082347
277.4935327719432	2.5	B	nonviolation	0	1.3083015880547464
280.49350144597696	2.5	B	violation	1	1.6193219609558582
283.4934591019992	2.5	A	violation	1	0.8153691608458757
286.4934115118813	2.5	A	nonviolation	1	0.728421324165538
289.4933793239761	2.5	A	violation	1	0.8834592059720308
292.4933346768376	2.5	A	nonviolation	1	0.9544944770168512
295.49329183902586	2.5	B	violation	1	1.511538445018232
298.4932604499627	2.5	A	violation	1	1.1905754168983549
301.49321706197225	2.5	A	nonviolation	1	1.35161811998114
304.4931795699522	2.5	A	nonviolation	1	0.7846535169519484
307.4931317199953	2.5	B	violation	1	1.0007048610132188
310.4930875939317	2.5	A	violation	1	0.904740713071078
313.49305609683506	2.5	B	violation	0	1.0847746031358838
316.49301731493324	2.5	A	nonviolation	1	1.2398194330744443
319.4929667059332	2.5	B	nonviolation	0	1.014856813941151
322.49293667799793	2.5	A	nonviolation	1	0.7858943559695035
325.49289023596793	2.5	B	violation	0	1.4059439380653205
328.4928503660485	2.5	A	violation	1	0.8819865309633315
331.49281398905435	2.5	B	nonviolation	0	0.895019561983645
334.49277484603226	2.5	B	violation	1	0.8430672858376056
337.49272478790954	2.5	A	nonviolation	1	0.7481097921263427
340.4926866400056	2.5	B	nonviolation	1	1.270166862057522
343.4926470848732	2.5	B	violation	1	1.0261918071191758
346.49260535603383	2.5	A	nonviolation	1	0.8602294409647584
349.4925599019043	2.5	B	violation	1	1.245275225955993
352.49252165597863	2.5	A	nonviolation	1	0.8912657098844647
355.49248429201543	2.5	A	nonviolation	1	0.7673588020261377
358.4924441180192	2.5	B	nonviolation	1	1.1923940100241452
361.4924047219101	2.5	A	violation	1	1.0154669811017811
364.4923617220483	2.5	A	violation	1	0.7233969788067043
367.49232083396055	2.5	B	nonviolation	1	1.1895196558907628
370.4922824020032	2.5	A	violation	1	0.7355569228529929
373.4922436119523	2.5	B	nonviolation	1	1.1194876420777289
376.4921987699345	2.5	B	violation	1	1.2326430450193584
379.4921622730326	2.5	A	violation	1	0.7756862139794976
382.49211996491067	2.5	A	nonviolation	1	0.826724800048396
385.4920779040549	2.5	A	violation	1	1.400765849975869
388.49204586585984	2.5	A	violation	1	1.0098005679901692
391.49199842684897	2.5	B	nonviolation	1	1.4448460140265524
394.4919597269036	2.5	A	nonviolation	1	1.3368827940430492
397.4919199799188	2.5	A	nonviolation	1	0.6829236140474677
400.4918738820125	2.5	A	violation	1	0.9779713980387896
403.49184431205504	2.5	B	violation	0	1.1170028308406472
406.4918225579895	2.5	B	nonviolation	1	0.9240196750033648
409.4917503688485	2.5	B	nonviolation	1	1.032121533062309
412.4917162829079	2.5	A	violation	1	0.9741274260450156
415.4916740499903	2.5	B	violation	1	1.1021750830113888
418.4916397938505	2.5	A	nonviolation	1	0.9482088221702724
421.49159988597967	2.5	A	violation	1	0.9122461450751872
424.4915497980547	2.5	B	violation	0	1.277301638852805
427.49151867185725	2.5	B	nonviolation	1	1.1173311742022634
430.4914735259954	2.5	B	violation	0	1.258377376012504
433.49143281695433	2.5	B	nonviolation	1	1.5584197230637074
436.49139368301263	2.5	B	nonviolation	0	1.7084570359438658
439.4913509760517	2.5	A	violation	1	0.9224325099494308
442.4913153019733	2.5	B	violation	1	1.0364586040377617
445.49126869183965	2.5	B	nonviolation	0	1.160517354030162
448.4912288018968	2.5	B	violation	0	1.226621686946601
451.4911839819979	2.5	A	nonviolation	1	1.2846684448886665
454.4911549440585	2.5	B	violation	1	0.8136982028372586
457.49111388786696	2.5	A	nonviolation	1	0.7277408780064434
460.49106609588483	2.5	B	violation	1	1.1337215099483728
463.4910292958375	2.5	A	nonviolation	1	0.9088197581004352
466.4909949549474	2.5	B	nonviolation	1	1.232863313984126
469.4909526640549	2.5	A	violation	1	0.9308997029438616
472.4909066359979	2.5	A	nonviolation	1	0.881944305030629
475.49086757004267	2.5	A	nonviolation	1	0.8629924759734422
478.4908230458386	2.5	A	violation	1	1.2449994951020926
481.47410569502966	2.5	A	violation	1	1.571744051994756
484.47406627796585	2.5	B	nonviolation	0	1.4747872909065336
487.474026981974	2.5	B	violation	1	1.5138273108750582
490.4739851059858	2.5	B	violation	1	1.2558819889090955
493.4906221339479	2.5	A	nonviolation	1	1.0061574710998684
496.47390232305037	2.5	B	violation	1	0.9079581398982556
499.47392067196785	2.5	A	violation	1	0.8729507979005575
502.4738256270066	2.5	A	violation	1	0.9479581438936292
505.47378823789774	2.5	A	nonviolation	1	0.7700749849900603
508.4737568788696	2.5	B	nonviolation	0	1.0571080341469496
511.47370890085597	2.5	A	violation	1	0.7160767891909927
514.4737100759521	2.5	B	nonviolation	0	1.2131623290479183
517.4736194058787	2.5	A	nonviolation	1	1.0212257171515375
520.4735953859054	2.5	B	violation	0	1.6532677549403159
523.4735494728666	2.5	B	nonviolation	0	0.9773086551576852
526.4735092599876	2.5	B	nonviolation	1	0.9543497180566192
529.4734611108432	2.5	B	violation	0	1.036390868015587
532.4734235499054	2.5	B	violation	1	1.8344344520010052
535.4733788699376	2.5	A	violation	1	0.8694868660531938
538.4733387790619	2.5	A	violation	1	0.8705259098205715
541.4733100549784	2.5	A	violation	1	0.6645551349502057
544.4732571118511	2.5	B	violation	0	1.1616079381201416
547.4732607980259	2.5	A	violation	1	0.8256092739757149
550.473179787863	2.5	A	nonviolation	1	1.115684553980827
553.4731478118338	2.5	A	nonviolation	1	1.1367142640519887
556.4730935988482	2.5	B	nonviolation	0	1.229780114023015
559.4730552069377	2.5	A	violation	1	0.758807519916445
562.4730156378355	2.5	A	nonviolation	1	0.986784344073385
565.4729873540347	2.5	B	nonviolation	0	0.9568869608920068
568.472941607004	2.5	A	violation	1	0.958927646977827
571.4729003559332	2.5	B	nonviolation	0	1.295967920916155
574.4728523499798	2.5	B	violation	0	1.605012227082625
577.472813677974	2.5	A	nonviolation	1	1.672050605993718
580.4727744099217	2.5	B	nonviolation	0	2.27808636194095
583.4727438529952	2.5	B	violation	0	0.9971266358625144
586.4727034510579	2.5	B	nonviolation	1	0.9761609218548984
