onset	duration	trial_type	condition	repetition	pairmate	pairID	category	subcategory	response_accuracy	response_time
13.502829090924935	1	postlearning	violation	2	n/a	6	face	male	1	0.7611663150601089
16.502781796967607	1	postlearning	violation	2	n/a	45	face	male	1	0.5692137300502509
19.502745075151324	1	postlearning	violation	2	n/a	39	face	female	1	0.8102495959028602
22.502707859035578	1	postlearning	violation	2	n/a	22	face	male	1	0.5592842949554324
25.502677425043654	1	postlearning	violation	2	n/a	24	face	male	1	0.5963181850966066
28.50262936693616	1	postlearning	violation	2	n/a	48	face	female	1	0.5342556179966778
31.50258552702144	1	postlearning	violation	2	n/a	36	face	female	1	0.5474112350493671
34.50254754093476	1	postlearning	violation	2	n/a	37	face	male	1	0.6054535671137273
37.502508284989744	1	postlearning	violation	2	n/a	47	face	female	1	0.6704897941090167
40.50246510398574	1	postlearning	violation	2	n/a	48	face	female	1	0.6705293240956962
43.50242693792097	1	postlearning	violation	2	n/a	44	face	female	1	0.6375708400737494
46.50238774809986	1	postlearning	violation	2	n/a	23	face	female	1	0.6176097309216857
49.50235054409131	1	postlearning	violation	2	n/a	33	face	male	1	0.663648220943287
52.502315788995475	1	postlearning	violation	2	n/a	35	face	female	1	0.7176800121087581
55.502268488053225	1	postlearning	violation	2	n/a	29	face	female	1	0.6727269149851054
58.50222960812971	1	postlearning	violation	2	n/a	7	face	female	1	0.6267699107993394
61.502189334016286	1	postlearning	violation	2	n/a	26	face	male	1	0.5808181199245155
64.50215730397031	1	postlearning	violation	2	n/a	27	face	female	1	0.6538355019874871
67.50211189710535	1	postlearning	violation	2	n/a	19	face	female	1	0.7368888908531517
70.50206989212893	1	postlearning	violation	2	n/a	17	face	male	1	0.8209308679215609
73.50203126203269	1	postlearning	violation	2	n/a	33	face	male	1	0.8668862800113857
76.50199185102247	1	postlearning	violation	2	n/a	4	face	male	1	0.7080113599076867
79.5019491489511	1	postlearning	violation	2	n/a	30	face	male	1	0.6910554179921746
82.50191786000505	1	postlearning	violation	2	n/a	32	face	female	1	0.6930852390360087
85.50187689694576	1	postlearning	violation	2	n/a	34	face	male	1	0.7271310600917786
88.50182923302056	1	postlearning	violation	2	n/a	24	face	male	1	0.6981762980576605
91.5017960539553	1	postlearning	violation	2	n/a	11	face	female	1	0.6642122471239418
94.50175187597051	1	postlearning	violation	2	n/a	31	face	male	1	0.6722577721811831
97.5017094220966	1	postlearning	violation	2	n/a	21	face	male	1	0.7493016039952636
100.50166986999102	1	postlearning	violation	2	n/a	32	face	female	1	0.7463344091083854
103.5016296110116	1	postlearning	violation	2	n/a	2	face	male	1	0.88337581907399
106.50159514206463	1	postlearning	violation	2	n/a	46	face	male	1	0.77140705101192
109.501552504953	1	postlearning	violation	2	n/a	27	face	female	1	0.7534530330449343
112.50151022896169	1	postlearning	violation	2	n/a	1	face	female	1	0.7734980750828981
115.50146750709972	1	postlearning	violation	2	n/a	43	face	male	1	0.7655431998427957
118.50143348402344	1	postlearning	violation	2	n/a	11	face	female	1	0.7575720520690084
121.50139114004558	1	postlearning	violation	2	n/a	16	face	female	1	0.829617704031989
124.50136203202422	1	postlearning	violation	2	n/a	12	face	male	1	0.7416464609559625
127.5013074250892	1	postlearning	violation	2	n/a	15	face	male	1	0.748701818054542
130.50126729207113	1	postlearning	violation	2	n/a	5	face	female	1	0.7667401658836752
133.50123349414207	1	postlearning	violation	2	n/a	8	face	female	1	0.7647782268468291
136.5011843459215	1	postlearning	violation	2	n/a	40	face	female	1	0.7548224551137537
139.5011540420819	1	postlearning	violation	2	n/a	5	face	female	1	0.7348549340385944
142.5011048009619	1	postlearning	violation	2	n/a	4	face	male	1	0.7437510811723769
145.5010668761097	1	postlearning	violation	2	n/a	25	face	male	1	0.7709077759645879
148.50103356712498	1	postlearning	violation	2	n/a	2	face	male	1	0.8029784939717501
151.50098351412453	1	postlearning	violation	2	n/a	8	face	female	1	0.7950265489052981
154.50094754411842	1	postlearning	violation	2	n/a	15	face	male	1	0.8670598738826811
157.50090336007997	1	postlearning	violation	2	n/a	41	face	female	1	0.7901042499579489
160.5008745661471	1	postlearning	violation	2	n/a	46	face	male	1	0.7851380738429725
163.5008524020668	1	postlearning	violation	2	n/a	29	face	female	1	0.8171643288806081
166.5007836050354	1	postlearning	violation	2	n/a	21	face	male	1	0.821228225948289
169.50074388808568	1	postlearning	violation	2	n/a	39	face	female	1	0.7572658050339669
172.50071071204732	1	postlearning	violation	2	n/a	16	face	female	1	1.0363049730658531
175.5006637640763	1	postlearning	violation	2	n/a	40	face	female	1	0.7833525710739195
178.50062304711898	1	postlearning	violation	2	n/a	10	face	male	1	0.761395629029721
181.50058306404392	1	postlearning	violation	2	n/a	34	face	male	1	0.8824277080129832
184.5005493420176	1	postlearning	violation	2	n/a	36	face	female	1	0.7534675050992519
187.5005028550513	1	postlearning	violation	2	n/a	10	face	male	1	0.9185137529857456
190.5004600249231	1	postlearning	violation	2	n/a	14	face	female	1	0.8325659302063286
193.5004198290408	1	postlearning	violation	2	n/a	28	face	female	1	0.8196147419512272
196.50037852302196	1	postlearning	violation	2	n/a	31	face	male	1	0.7586374960374087
199.5003387851175	1	postlearning	violation	2	n/a	45	face	male	1	0.8636761079542339
202.50030298298225	1	postlearning	violation	2	n/a	41	face	female	1	0.7697102259844542
205.5002592459787	1	postlearning	violation	2	n/a	26	face	male	1	0.7517607919871807
208.500219319947	1	postlearning	violation	2	n/a	17	face	male	1	0.7777982710395008
211.50017820694484	1	postlearning	violation	2	n/a	6	face	male	1	0.8288402461912483
214.50014101411216	1	postlearning	violation	2	n/a	37	face	male	1	0.7658846189733595
217.5000970179681	1	postlearning	violation	2	n/a	1	face	female	1	0.8259236430749297
220.50005688308738	1	postlearning	violation	2	n/a	44	face	female	1	0.8479652218520641
223.50001644599246	1	postlearning	violation	2	n/a	35	face	female	1	0.8509214839432389
226.4999834629707	1	postlearning	violation	2	n/a	22	face	male	1	0.7448647951241583
229.49993417994116	1	postlearning	violation	2	n/a	7	face	female	1	0.8050219181459397
232.49989412701692	1	postlearning	violation	2	n/a	9	face	male	1	0.8041303369682282
235.4998526049312	1	postlearning	violation	2	n/a	20	face	female	1	0.7271696070674807
238.499821054982	1	postlearning	violation	2	n/a	20	face	female	1	0.7612137030810118
241.4997791950591	1	postlearning	violation	2	n/a	43	face	male	1	0.6522459499537945
244.49973978614437	1	postlearning	violation	2	n/a	13	face	female	1	0.7982890929561108
247.49969371315086	1	postlearning	violation	2	n/a	47	face	female	1	0.7633330028038472
250.49964978313076	1	postlearning	violation	2	n/a	12	face	male	1	0.7863795559387654
253.49961127899584	1	postlearning	violation	2	n/a	38	face	male	1	0.7924129711464047
256.4995696421247	1	postlearning	violation	2	n/a	19	face	female	1	0.84846300794743
259.4995360351168	1	postlearning	violation	2	n/a	42	face	male	1	0.7674847189337015
262.49949003895745	1	postlearning	violation	2	n/a	14	face	female	1	0.8195406121667475
265.499451372074	1	postlearning	violation	2	n/a	3	face	male	1	0.6975794930476695
268.4994090839755	1	postlearning	violation	2	n/a	3	face	male	1	0.7666163321118802
271.4993676650338	1	postlearning	violation	2	n/a	42	face	male	1	0.8226596480235457
274.4993277541362	1	postlearning	violation	2	n/a	25	face	male	1	0.7476990348659456
277.49928770400584	1	postlearning	violation	2	n/a	38	face	male	1	0.7847427900414914
280.49924792698584	1	postlearning	violation	2	n/a	13	face	female	1	0.7936723551247269
283.49920377810486	1	postlearning	violation	2	n/a	18	face	female	1	0.7488206578418612
286.4991649009753	1	postlearning	violation	2	n/a	30	face	male	1	0.795805118046701
289.4991222079843	1	postlearning	violation	2	n/a	28	face	female	1	0.8128504289779812
292.49908310314635	1	postlearning	violation	2	n/a	18	face	female	1	0.7719460078515112
295.4990480320994	1	postlearning	violation	2	n/a	23	face	female	1	0.7569851540029049
298.49900040007196	1	postlearning	violation	2	n/a	9	face	male	1	0.8230300799477845
