onset	duration	trial_type	reward_condition	condition	repetition	pairmate	pairID	response_accuracy	response_time
13.507174871047027	2.5	scene	reward	nonviolation	1	A	85	0	1.1471300610573962
16.007174871047027	3.0	feedback	n/a	n/a	n/a	n/a	n/a	n/a	n/a
19.50668736803345	2.5	scene	neutral	nonviolation	1	A	50	1	0.9016136990394444
22.00668736803345	3.0	feedback	n/a	n/a	n/a	n/a	n/a	n/a	n/a
25.50659559306223	2.5	scene	reward	violation	1	A	6	1	0.7036277819424868
28.00659559306223	3.0	feedback	n/a	n/a	n/a	n/a	n/a	n/a	n/a
31.506401858059693	2.5	scene	reward	violation	1	A	18	1	0.7299073659814894
34.00640185805969	3.0	feedback	n/a	n/a	n/a	n/a	n/a	n/a	n/a
37.50613629806321	2.5	scene	neutral	nonviolation	1	A	82	1	0.7961764039937407
40.00613629806321	3.0	feedback	n/a	n/a	n/a	n/a	n/a	n/a	n/a
43.50565336004365	2.5	scene	neutral	violation	1	A	21	1	0.6206481050467119
46.00565336004365	3.0	feedback	n/a	n/a	n/a	n/a	n/a	n/a	n/a
49.50494306103792	2.5	scene	neutral	violation	1	A	43	1	0.9632845970336348
52.00494306103792	3.0	feedback	n/a	n/a	n/a	n/a	n/a	n/a	n/a
55.50446092407219	2.5	scene	neutral	nonviolation	1	A	90	1	0.6448410169687122
58.00446092407219	3.0	feedback	n/a	n/a	n/a	n/a	n/a	n/a	n/a
61.50497438001912	2.5	scene	reward	violation	1	A	17	1	1.0913322910200804
64.00497438001912	3.0	feedback	n/a	n/a	n/a	n/a	n/a	n/a	n/a
67.50448155403136	2.5	scene	reward	violation	1	A	37	0	1.3268284880323336
70.00448155403136	3.0	feedback	n/a	n/a	n/a	n/a	n/a	n/a	n/a
73.50378126499709	2.5	scene	reward	nonviolation	1	A	60	1	1.1185264741070569
76.00378126499709	3.0	feedback	n/a	n/a	n/a	n/a	n/a	n/a	n/a
79.5043012771057	2.5	scene	reward	violation	1	A	44	1	0.9270038329996168
82.0043012771057	3.0	feedback	n/a	n/a	n/a	n/a	n/a	n/a	n/a
85.5043180329958	2.5	scene	reward	violation	1	A	45	1	1.3139922330155969
88.0043180329958	3.0	feedback	n/a	n/a	n/a	n/a	n/a	n/a	n/a
91.5030639260076	2.5	scene	neutral	violation	1	A	14	1	1.0462503600865602
94.0030639260076	3.0	feedback	n/a	n/a	n/a	n/a	n/a	n/a	n/a
97.50285887299107	2.5	scene	reward	nonviolation	1	A	62	1	0.7064389950828627
100.00285887299107	3.0	feedback	n/a	n/a	n/a	n/a	n/a	n/a	n/a
103.50228820799386	2.5	scene	reward	violation	1	A	16	1	0.7289932620478794
106.00228820799386	3.0	feedback	n/a	n/a	n/a	n/a	n/a	n/a	n/a
109.50220912403893	2.5	scene	reward	nonviolation	1	A	96	1	0.7181044210446998
112.00220912403893	3.0	feedback	n/a	n/a	n/a	n/a	n/a	n/a	n/a
115.50211920600849	2.5	scene	neutral	violation	1	A	35	1	0.525195199996233
118.00211920600849	3.0	feedback	n/a	n/a	n/a	n/a	n/a	n/a	n/a
121.50204279704485	2.5	scene	neutral	violation	1	A	23	1	1.0072698199655858
124.00204279704485	3.0	feedback	n/a	n/a	n/a	n/a	n/a	n/a	n/a
127.5019592870958	2.5	scene	neutral	nonviolation	1	A	51	1	1.1743561739567667
130.0019592870958	3.0	feedback	n/a	n/a	n/a	n/a	n/a	n/a	n/a
133.50189091800712	2.5	scene	neutral	violation	1	A	26	1	0.8084276370937005
136.00189091800712	3.0	feedback	n/a	n/a	n/a	n/a	n/a	n/a	n/a
139.50180049601477	2.5	scene	neutral	violation	1	A	3	1	0.7585196220315993
142.00180049601474	3.0	feedback	n/a	n/a	n/a	n/a	n/a	n/a	n/a
145.50172219704837	2.5	scene	reward	nonviolation	1	A	76	1	0.927594008971937
148.00172219704837	3.0	feedback	n/a	n/a	n/a	n/a	n/a	n/a	n/a
151.50164131599013	2.5	scene	reward	nonviolation	1	A	49	0	1.613673081039451
154.00164131599013	3.0	feedback	n/a	n/a	n/a	n/a	n/a	n/a	n/a
157.5015641670907	2.5	scene	neutral	violation	1	A	30	1	0.8857542310142891
160.0015641670907	3.0	feedback	n/a	n/a	n/a	n/a	n/a	n/a	n/a
163.50148926710244	2.5	scene	reward	violation	1	A	10	1	0.9748369419248776
166.00148926710244	3.0	feedback	n/a	n/a	n/a	n/a	n/a	n/a	n/a
169.5014076840598	2.5	scene	reward	nonviolation	1	A	66	1	1.2489199440460652
172.00140768405984	3.0	feedback	n/a	n/a	n/a	n/a	n/a	n/a	n/a
175.50133656605612	2.5	scene	neutral	nonviolation	1	A	70	1	0.9419864489464088
178.00133656605612	3.0	feedback	n/a	n/a	n/a	n/a	n/a	n/a	n/a
181.5012449560454	2.5	scene	neutral	violation	1	A	33	1	0.7280840439489111
184.0012449560454	3.0	feedback	n/a	n/a	n/a	n/a	n/a	n/a	n/a
187.50116308010186	2.5	scene	neutral	violation	1	A	4	1	0.8401700559770688
190.00116308010186	3.0	feedback	n/a	n/a	n/a	n/a	n/a	n/a	n/a
193.50108934007582	2.5	scene	neutral	violation	1	A	15	1	0.6612364819739014
196.00108934007582	3.0	feedback	n/a	n/a	n/a	n/a	n/a	n/a	n/a
199.50100302603096	2.5	scene	neutral	violation	1	A	41	1	0.6993025980191305
202.00100302603096	3.0	feedback	n/a	n/a	n/a	n/a	n/a	n/a	n/a
205.5009231599979	2.5	scene	reward	violation	1	A	32	1	1.0034058160381392
208.0009231599979	3.0	feedback	n/a	n/a	n/a	n/a	n/a	n/a	n/a
211.50084337010048	2.5	scene	neutral	nonviolation	1	A	75	1	1.0824798858957363
214.00084337010048	3.0	feedback	n/a	n/a	n/a	n/a	n/a	n/a	n/a
217.5007616650546	2.5	scene	neutral	nonviolation	1	A	93	1	0.8165667039575055
220.0007616650546	3.0	feedback	n/a	n/a	n/a	n/a	n/a	n/a	n/a
223.5007116420893	2.5	scene	reward	violation	1	A	27	1	0.6626152449753135
226.0007116420893	3.0	feedback	n/a	n/a	n/a	n/a	n/a	n/a	n/a
229.50060428504366	2.5	scene	reward	nonviolation	1	A	56	1	0.9537223769584672
232.00060428504366	3.0	feedback	n/a	n/a	n/a	n/a	n/a	n/a	n/a
235.5005341030192	2.5	scene	reward	violation	1	A	1	0	0.81879472208675
238.0005341030192	3.0	feedback	n/a	n/a	n/a	n/a	n/a	n/a	n/a
241.5004413611023	2.5	scene	reward	nonviolation	1	A	69	0	1.5278866519220171
244.0004413611023	3.0	feedback	n/a	n/a	n/a	n/a	n/a	n/a	n/a
247.5003680320224	2.5	scene	neutral	nonviolation	1	A	68	1	1.122877590009011
250.0003680320224	3.0	feedback	n/a	n/a	n/a	n/a	n/a	n/a	n/a
253.50029136100784	2.5	scene	reward	violation	1	A	34	1	0.9760186150670052
256.00029136100784	3.0	feedback	n/a	n/a	n/a	n/a	n/a	n/a	n/a
259.50020938110544	2.5	scene	neutral	nonviolation	1	A	86	1	1.00212554493919
262.00020938110544	3.0	feedback	n/a	n/a	n/a	n/a	n/a	n/a	n/a
265.50013010203844	2.5	scene	neutral	nonviolation	1	A	64	1	1.1662005480611697
268.00013010203844	3.0	feedback	n/a	n/a	n/a	n/a	n/a	n/a	n/a
271.50004310300574	2.5	scene	neutral	nonviolation	1	A	61	1	1.0972910430282354
274.00004310300574	3.0	feedback	n/a	n/a	n/a	n/a	n/a	n/a	n/a
277.49997258605435	2.5	scene	reward	nonviolation	1	A	80	1	0.8603605669923127
279.99997258605435	3.0	feedback	n/a	n/a	n/a	n/a	n/a	n/a	n/a
283.49988502101036	2.5	scene	reward	nonviolation	1	A	81	1	0.6954501700820401
285.99988502101036	3.0	feedback	n/a	n/a	n/a	n/a	n/a	n/a	n/a
289.4998018170008	2.5	scene	reward	nonviolation	1	A	94	1	0.9325314060552046
291.9998018170008	3.0	feedback	n/a	n/a	n/a	n/a	n/a	n/a	n/a
295.4997222070815	2.5	scene	neutral	nonviolation	1	A	79	1	0.7426158359739929
297.9997222070815	3.0	feedback	n/a	n/a	n/a	n/a	n/a	n/a	n/a
301.49964149005245	2.5	scene	reward	violation	2	A	6	1	0.8336991840042174
303.99964149005245	3.0	feedback	n/a	n/a	n/a	n/a	n/a	n/a	n/a
307.4995627520839	2.5	scene	neutral	violation	2	A	15	1	0.5597782639088109
309.9995627520839	3.0	feedback	n/a	n/a	n/a	n/a	n/a	n/a	n/a
313.49948852101807	2.5	scene	reward	violation	2	A	34	1	0.5728524030419067
315.99948852101807	3.0	feedback	n/a	n/a	n/a	n/a	n/a	n/a	n/a
319.4994018001016	2.5	scene	neutral	nonviolation	2	A	82	1	0.9719402129994704
321.9994018001016	3.0	feedback	n/a	n/a	n/a	n/a	n/a	n/a	n/a
325.49933186010463	2.5	scene	neutral	nonviolation	2	A	50	1	0.6810087839839979
327.99933186010463	3.0	feedback	n/a	n/a	n/a	n/a	n/a	n/a	n/a
331.49924334301613	2.5	scene	reward	violation	2	A	16	1	0.9370974450139328
333.99924334301613	3.0	feedback	n/a	n/a	n/a	n/a	n/a	n/a	n/a
337.49916096800007	2.5	scene	neutral	violation	2	A	21	1	0.6311850720085204
339.99916096800007	3.0	feedback	n/a	n/a	n/a	n/a	n/a	n/a	n/a
343.4824191210792	2.5	scene	neutral	nonviolation	2	A	70	1	0.8539267799351364
345.9824191210792	3.0	feedback	n/a	n/a	n/a	n/a	n/a	n/a	n/a
349.48233835003333	2.5	scene	reward	nonviolation	2	A	62	1	0.6490028160624206
351.98233835003333	3.0	feedback	n/a	n/a	n/a	n/a	n/a	n/a	n/a
355.4822562690824	2.5	scene	neutral	violation	2	A	23	1	0.7230928019853309
357.9822562690824	3.0	feedback	n/a	n/a	n/a	n/a	n/a	n/a	n/a
361.48217887000646	2.5	scene	neutral	nonviolation	2	A	68	1	0.850166478077881
363.98217887000646	3.0	feedback	n/a	n/a	n/a	n/a	n/a	n/a	n/a
367.4821073230123	2.5	scene	reward	nonviolation	2	A	49	1	1.0912383900722489
369.9821073230123	3.0	feedback	n/a	n/a	n/a	n/a	n/a	n/a	n/a
373.4820163541008	2.5	scene	neutral	nonviolation	2	A	93	1	0.6873281829757616
375.9820163541008	3.0	feedback	n/a	n/a	n/a	n/a	n/a	n/a	n/a
379.4819393910002	2.5	scene	reward	violation	2	A	18	1	0.6914083940209821
381.9819393910002	3.0	feedback	n/a	n/a	n/a	n/a	n/a	n/a	n/a
385.48186559102027	2.5	scene	reward	nonviolation	2	A	81	1	0.5974910160293803
387.98186559102027	3.0	feedback	n/a	n/a	n/a	n/a	n/a	n/a	n/a
391.4817898001056	2.5	scene	reward	violation	2	A	10	1	0.6385615139734
393.9817898001056	3.0	feedback	n/a	n/a	n/a	n/a	n/a	n/a	n/a
397.4817074090242	2.5	scene	reward	nonviolation	2	A	66	1	0.5776385390199721
399.9817074090242	3.0	feedback	n/a	n/a	n/a	n/a	n/a	n/a	n/a
403.4816284080735	2.5	scene	neutral	violation	2	A	41	1	0.7037242539227009
405.9816284080735	3.0	feedback	n/a	n/a	n/a	n/a	n/a	n/a	n/a
409.4815471241018	2.5	scene	neutral	nonviolation	2	A	79	1	0.5918049559695646
411.9815471241018	3.0	feedback	n/a	n/a	n/a	n/a	n/a	n/a	n/a
415.48146306502167	2.5	scene	reward	violation	2	A	37	1	0.8848902030149475
417.98146306502167	3.0	feedback	n/a	n/a	n/a	n/a	n/a	n/a	n/a
421.4861050270265	2.5	scene	neutral	nonviolation	2	A	61	1	0.7342509459704161
423.9861050270265	3.0	feedback	n/a	n/a	n/a	n/a	n/a	n/a	n/a
427.4856188680278	2.5	scene	neutral	nonviolation	2	A	86	1	0.8497367249801755
429.9856188680278	3.0	feedback	n/a	n/a	n/a	n/a	n/a	n/a	n/a
433.4861346270191	2.5	scene	neutral	violation	2	A	26	1	0.9762173580238596
435.9861346270191	3.0	feedback	n/a	n/a	n/a	n/a	n/a	n/a	n/a
439.4848858920158	2.5	scene	reward	violation	2	A	45	1	0.8974718160461634
441.9848858920158	3.0	feedback	n/a	n/a	n/a	n/a	n/a	n/a	n/a
445.48440106108325	2.5	scene	neutral	violation	2	A	43	1	0.9559711209731176
447.98440106108325	3.0	feedback	n/a	n/a	n/a	n/a	n/a	n/a	n/a
451.4851980580716	2.5	scene	reward	violation	2	A	32	1	0.714163395925425
453.9851980580716	3.0	feedback	n/a	n/a	n/a	n/a	n/a	n/a	n/a
457.48371474409936	2.5	scene	neutral	violation	2	A	4	1	0.6656454819021747
459.98371474409936	3.0	feedback	n/a	n/a	n/a	n/a	n/a	n/a	n/a
463.4842307850486	2.5	scene	reward	nonviolation	2	A	69	1	0.7001280640251935
465.9842307850486	3.0	feedback	n/a	n/a	n/a	n/a	n/a	n/a	n/a
469.48374991503084	2.5	scene	reward	nonviolation	2	A	94	1	0.6696070390753448
471.98374991503084	3.0	feedback	n/a	n/a	n/a	n/a	n/a	n/a	n/a
475.48326269607065	2.5	scene	reward	violation	2	A	17	1	0.6490961050149053
477.98326269607065	3.0	feedback	n/a	n/a	n/a	n/a	n/a	n/a	n/a
481.4827779980842	2.5	scene	neutral	violation	2	A	3	1	0.6785797679331154
483.9827779980842	3.0	feedback	n/a	n/a	n/a	n/a	n/a	n/a	n/a
487.4828061080771	2.5	scene	neutral	violation	2	A	14	1	0.7425602899165824
489.9828061080771	3.0	feedback	n/a	n/a	n/a	n/a	n/a	n/a	n/a
493.48260609409766	2.5	scene	reward	nonviolation	2	A	96	1	0.6747670229524374
495.98260609409766	3.0	feedback	n/a	n/a	n/a	n/a	n/a	n/a	n/a
499.4811301630688	2.5	scene	neutral	violation	2	A	30	1	0.9592344779521228
501.9811301630688	3.0	feedback	n/a	n/a	n/a	n/a	n/a	n/a	n/a
505.48193307709886	2.5	scene	neutral	violation	2	A	35	1	0.5564298949902877
507.98193307709886	3.0	feedback	n/a	n/a	n/a	n/a	n/a	n/a	n/a
511.48222905106377	2.5	scene	neutral	nonviolation	2	A	51	0	0.7781337769702077
513.9822290510639	3.0	feedback	n/a	n/a	n/a	n/a	n/a	n/a	n/a
517.4809746320825	2.5	scene	reward	nonviolation	2	A	56	1	0.6563946689711884
519.9809746320825	3.0	feedback	n/a	n/a	n/a	n/a	n/a	n/a	n/a
523.4804947860539	2.5	scene	neutral	nonviolation	2	A	64	1	0.812868601991795
525.9804947860539	3.0	feedback	n/a	n/a	n/a	n/a	n/a	n/a	n/a
529.4802977050422	2.5	scene	reward	violation	2	A	1	1	0.70107399194967
531.9802977050422	3.0	feedback	n/a	n/a	n/a	n/a	n/a	n/a	n/a
535.4808160680113	2.5	scene	reward	nonviolation	2	A	76	1	0.7235494320048019
537.9808160680113	3.0	feedback	n/a	n/a	n/a	n/a	n/a	n/a	n/a
541.4803218460875	2.5	scene	neutral	nonviolation	2	A	90	1	0.5880503919906914
543.9803218460875	3.0	feedback	n/a	n/a	n/a	n/a	n/a	n/a	n/a
547.4799080560915	2.5	scene	reward	violation	2	A	44	1	0.8653765330091119
549.9799080560915	3.0	feedback	n/a	n/a	n/a	n/a	n/a	n/a	n/a
553.4796372810379	2.5	scene	neutral	nonviolation	2	A	75	1	0.7437319110613316
555.9796372810379	3.0	feedback	n/a	n/a	n/a	n/a	n/a	n/a	n/a
559.4795568390982	2.5	scene	reward	nonviolation	2	A	85	1	0.7698156969854608
561.9795568390982	3.0	feedback	n/a	n/a	n/a	n/a	n/a	n/a	n/a
565.4794818580849	2.5	scene	reward	nonviolation	2	A	60	1	0.9478889739839359
567.9794818580849	3.0	feedback	n/a	n/a	n/a	n/a	n/a	n/a	n/a
571.4794030520134	2.5	scene	reward	nonviolation	2	A	80	1	0.6479670089902356
573.9794030520134	3.0	feedback	n/a	n/a	n/a	n/a	n/a	n/a	n/a
577.4793183950243	2.5	scene	neutral	violation	2	A	33	1	0.8880520979873836
579.9793183950243	3.0	feedback	n/a	n/a	n/a	n/a	n/a	n/a	n/a
583.4792426950297	2.5	scene	reward	violation	2	A	27	1	0.8881282360525802
585.9792426950297	3.0	feedback	n/a	n/a	n/a	n/a	n/a	n/a	n/a
