onset	duration	trial_type	subcategory	response_accuracy	response_time
13.500606526155025	0.5	face	female	1	0.3850780678912997
15.00058784801513	0.5	face	male	1	0.45097634801641107
16.500564151909202	0.5	face	female	1	0.3880372499115765
18.00054867193103	0.5	face	male	1	0.37713057501241565
19.500526783056557	0.5	face	male	1	0.34012677799910307
21.00050861109048	0.5	face	female	1	0.31517735915258527
22.50048710592091	0.5	face	female	1	0.4982014442794025
24.000466967001557	0.5	face	female	1	0.4092174810357392
25.500445481855422	0.5	face	male	1	0.360241690184921
27.000427285209298	0.5	face	male	1	0.3792385929264128
43.500207539182156	0.5	object	natural	1	0.5854746578261256
45.000188938807696	0.5	object	natural	1	0.4185027270577848
46.50016760407016	0.5	object	manmade	1	0.4205149789340794
48.00014749681577	0.5	object	manmade	1	0.45449715107679367
49.50012734811753	0.5	object	natural	1	0.3955647787079215
51.000107410829514	0.5	object	manmade	1	0.40454293321818113
52.50008727516979	0.5	object	natural	1	0.4895967417396605
54.00006529595703	0.5	object	natural	1	0.6956172352656722
55.50004765018821	0.5	object	manmade	1	0.5226345458067954
57.00002735480666	0.5	object	manmade	1	0.49966811621561646
73.4998069582507	0.5	scene	outdoor	1	0.5498838308267295
74.99978774087504	0.5	scene	outdoor	1	0.4359074141830206
76.49976717820391	0.5	scene	indoor	1	0.6279943217523396
77.99974652985111	0.5	scene	indoor	1	0.3709158292040229
79.49972713505849	0.5	scene	indoor	1	0.40696679102256894
80.99970691790804	0.5	scene	outdoor	1	0.3709760531783104
82.49968649121001	0.5	scene	indoor	1	0.7719194530509412
83.9996665599756	0.5	scene	outdoor	1	0.46702570002526045
85.49964653607458	0.5	scene	outdoor	1	0.3790459609590471
86.99962641112506	0.5	scene	indoor	1	0.6020690929144621
103.49940537521616	0.5	object	manmade	1	0.5662964526563883
105.00373191991821	0.5	object	manmade	1	0.5539610860869288
106.49936548015103	0.5	object	manmade	1	0.4793362501077354
107.99934603506699	0.5	object	natural	1	0.4934019697830081
109.49932546680793	0.5	object	natural	1	0.3873643814586103
110.99930526688695	0.5	object	natural	1	0.429390418343246
112.49928520619869	0.5	object	natural	1	0.5054367720149457
113.99926311383024	0.5	object	natural	1	0.5134331732988358
115.49924523290247	0.5	object	manmade	1	0.40244985092431307
116.99922556988895	0.5	object	manmade	1	0.3814944471232593
133.4990036911331	0.5	scene	indoor	1	0.5906896810047328
134.99898564210162	0.5	scene	outdoor	1	0.563716561999172
136.50241769617423	0.5	scene	indoor	0	0.6572793866507709
137.9989414261654	0.5	scene	indoor	1	0.6556737800128758
139.4989275150001	0.5	scene	indoor	0	0.5026854570023715
140.99890328617766	0.5	scene	outdoor	1	0.39980283100157976
142.49888314586133	0.5	scene	outdoor	1	0.420740585308522
143.99886078899726	0.5	scene	outdoor	1	0.3888428248465061
145.4988414691761	0.5	scene	indoor	1	0.48385885870084167
146.9988226708956	0.5	scene	outdoor	1	0.42689220793545246
163.49860097281635	0.5	face	female	1	0.4220959022641182
164.99858584906906	0.5	face	female	1	0.39311324805021286
166.49980120826513	0.5	face	male	1	0.3609046167694032
167.99854082008824	0.5	face	female	1	0.41015689680352807
169.49852078594267	0.5	face	male	1	0.4161883993074298
170.9984985771589	0.5	face	male	1	0.29520332906395197
172.49848150508478	0.5	face	male	1	0.4022202407941222
173.99846057919785	0.5	face	female	1	0.38223925698548555
175.4984402321279	0.5	face	male	1	0.4342912998981774
176.99841841310263	0.5	face	female	1	0.670282615814358
193.49819897580892	0.5	scene	outdoor	1	0.45247669238597155
194.9981787460856	0.5	scene	outdoor	1	0.4085263339802623
196.4991789511405	0.5	scene	indoor	1	0.3625247008167207
197.99813838815317	0.5	scene	outdoor	1	0.5475755319930613
199.49811828602105	0.5	scene	indoor	1	0.5895933099091053
200.99809831380844	0.5	scene	outdoor	1	0.5436116550117731
202.49807815998793	0.5	scene	outdoor	1	0.49863594118505716
203.99805719591677	0.5	scene	indoor	1	0.7086552092805505
205.49803793197498	0.5	scene	indoor	1	0.49866816122084856
206.99802393792197	0.5	scene	indoor	1	0.5027007348835468
223.497795953881	0.5	scene	outdoor	1	0.4538505473174155
224.99777585687116	0.5	scene	indoor	1	0.6319346521049738
226.49775506881997	0.5	scene	indoor	1	0.406959627289325
227.997736311052	0.5	scene	outdoor	1	0.4939757459796965
229.49771579820663	0.5	scene	outdoor	1	0.4549969700165093
230.99769459292293	0.5	scene	indoor	1	0.4520152439363301
232.4976756540127	0.5	scene	outdoor	1	0.6430351031012833
233.99765285290778	0.5	scene	indoor	1	0.49506184132769704
235.49763523507863	0.5	scene	indoor	1	0.3531002108938992
236.99761577509344	0.5	scene	outdoor	1	0.5351105891168118
253.49739404022694	0.5	object	natural	1	0.37432051077485085
254.99737393623218	0.5	object	manmade	1	0.46333907963708043
256.4973543728702	0.5	object	manmade	1	0.3893577619455755
257.99733390519395	0.5	object	natural	1	0.4052987168543041
259.49731397116557	0.5	object	natural	1	0.5243969559669495
260.9972921782173	0.5	object	manmade	0	0.4174189269542694
262.4972727848217	0.5	object	natural	1	0.42945264419540763
263.9972543432377	0.5	object	manmade	1	0.4784613256342709
265.49723318312317	0.5	object	manmade	1	0.37247850373387337
266.99721290916204	0.5	object	natural	1	0.6375283249653876
283.49699282692745	0.5	face	male	1	0.3216415699571371
284.996971540153	0.5	face	female	1	0.34974302165210247
286.4969527539797	0.5	face	male	1	0.450760040897876
287.9969289419241	0.5	face	female	1	0.34179009729996324
289.49691149313	0.5	face	male	1	0.6108017298392951
290.9968910161406	0.5	face	male	0	0.37483371375128627
292.496871012263	0.5	face	female	1	0.3328532655723393
293.99685091525316	0.5	face	female	1	0.4998638229444623
295.496830758173	0.5	face	male	1	0.3648839150555432
296.99681048095226	0.5	face	female	1	0.41390607226639986
313.4965877630748	0.5	object	natural	1	0.42109239706769586
314.9965686262585	0.5	object	manmade	1	0.4541353206150234
316.49654963519424	0.5	object	natural	1	0.743170022033155
317.99652829999104	0.5	object	manmade	1	0.45218842988833785
319.4965058970265	0.5	object	natural	1	0.4522129879333079
320.9964885599911	0.5	object	manmade	1	0.4112338572740555
322.4964675991796	0.5	object	manmade	1	0.49025880079716444
323.99644940905273	0.5	object	natural	1	0.5423475191928446
325.4964269641787	0.5	object	manmade	1	0.4712053439579904
326.99640785483643	0.5	object	natural	1	0.5703135631047189
343.4961844198406	0.5	face	female	1	0.40660592913627625
344.9961662632413	0.5	face	male	1	0.42856076173484325
346.49614652991295	0.5	face	female	1	0.4355793963186443
347.9961259448901	0.5	face	female	1	0.46660106210038066
349.4961065100506	0.5	face	female	1	0.7356213568709791
350.99608601722866	0.5	face	male	1	0.45966268377378583
352.49606621591374	0.5	face	male	1	0.41866327729076147
353.99604510422796	0.5	face	female	1	0.38368467381224036
355.4960263511166	0.5	face	male	1	0.6756985560059547
356.99600541219115	0.5	face	male	1	0.5907212570309639
373.49578395998105	0.5	object	manmade	1	0.812950901221484
374.995763998013	0.5	object	natural	1	0.40488379495218396
376.4957425929606	0.5	object	manmade	1	0.47598627116531134
377.99572381703183	0.5	object	natural	1	0.5170055720955133
379.4957009879872	0.5	object	natural	1	0.411027065012604
380.99568416317925	0.5	object	natural	1	0.4430443597957492
382.49566541519016	0.5	object	natural	1	0.4740635468624532
383.99564302014187	0.5	object	manmade	1	0.5299557447433472
385.495621078182	0.5	object	manmade	1	0.5361075648106635
386.9956052848138	0.5	object	manmade	1	0.36012155935168266
403.4953816048801	0.5	face	male	1	0.4643456260673702
404.99536196887493	0.5	face	male	1	0.39537030132487416
406.49534284183756	0.5	face	female	1	0.3963879281654954
407.99532140186056	0.5	face	female	1	0.3994132434017956
409.49530188413337	0.5	face	female	1	0.41641338309273124
410.9786122152582	0.5	face	female	1	0.49515348160639405
412.47859224909917	0.5	face	female	1	0.4621574468910694
413.97857212089	0.5	face	male	1	0.33916424633935094
415.47855155495927	0.5	face	male	1	0.29518616013228893
416.9785319720395	0.5	face	male	1	0.36213125195354223
433.47831321693957	0.5	scene	outdoor	1	0.506425925064832
434.97829123586416	0.5	scene	indoor	1	0.6004486293531954
436.4782742341049	0.5	scene	outdoor	1	0.4204652621410787
437.97825265908614	0.5	scene	outdoor	1	0.3384008868597448
439.4782328750007	0.5	scene	outdoor	1	0.4945088680833578
440.978210514877	0.5	scene	indoor	1	0.42552463710308075
442.47819277690724	0.5	scene	indoor	1	0.7635000753216445
443.9781708782539	0.5	scene	indoor	1	0.3485734658315778
445.47815226297826	0.5	scene	outdoor	1	0.5075827669352293
446.9781304318458	0.5	scene	indoor	1	0.6496093282476068
