onset	duration	trial_type	condition	repetition	pairmate	pairID	category	subcategory	response_accuracy	response_time
13.504325304063967	1	prelearning	nonviolation	1	A	91	scene	indoor	1	0.6880743829533458
16.504286900046278	1	prelearning	violation	1	A	46	scene	indoor	1	0.4951122519560158
19.504259145003747	1	prelearning	violation	1	A	45	scene	indoor	1	0.5461491260211915
22.50421210203785	1	prelearning	nonviolation	1	A	93	scene	outdoor	1	0.3571876919595525
25.504167592967857	1	prelearning	nonviolation	1	A	92	scene	indoor	1	0.5252337310230359
28.504135177005075	1	prelearning	nonviolation	1	A	90	scene	outdoor	1	0.3982685880037025
31.50409970304463	1	prelearning	violation	1	B	48	scene	outdoor	1	0.3703059649560601
34.50404550402891	1	prelearning	violation	1	B	42	scene	indoor	1	0.5383615869795904
37.504013295983896	1	prelearning	nonviolation	1	B	89	scene	outdoor	1	0.4653989650541917
40.50396713998634	1	prelearning	violation	1	B	44	scene	indoor	1	0.6574360170634463
43.50396711903159	1	prelearning	nonviolation	1	A	95	scene	outdoor	1	0.546438041026704
46.503885227022685	1	prelearning	violation	1	B	47	scene	outdoor	1	0.490517013007775
49.50384874304291	1	prelearning	nonviolation	1	A	89	scene	outdoor	1	0.5175546519458294
52.50380866206251	1	prelearning	nonviolation	1	B	93	scene	outdoor	1	0.3625967259285972
55.50376674206928	1	prelearning	nonviolation	1	B	94	scene	indoor	1	0.5176451199222356
58.50372698204592	1	prelearning	violation	1	B	43	scene	outdoor	1	0.3986802169820294
61.503689286997535	1	prelearning	nonviolation	1	A	96	scene	indoor	0	0.7227206999668851
64.50364595802967	1	prelearning	nonviolation	1	B	91	scene	outdoor	1	0.5277591069461778
67.50360958499368	1	prelearning	violation	1	A	48	scene	indoor	1	0.7047979310154915
70.50357414304744	1	prelearning	violation	1	A	41	scene	outdoor	1	0.5957987109431997
73.50352955097333	1	prelearning	violation	1	A	44	scene	outdoor	1	0.5678796550491825
76.503483470995	1	prelearning	nonviolation	1	B	90	scene	indoor	1	0.8119320829864591
79.50344368303195	1	prelearning	nonviolation	1	B	92	scene	indoor	1	0.6339706999715418
82.50340703397524	1	prelearning	nonviolation	1	B	96	scene	outdoor	1	0.5010067659895867
85.5033616500441	1	prelearning	violation	1	B	45	scene	outdoor	1	0.6159700389252976
88.5033244540682	1	prelearning	nonviolation	1	A	94	scene	indoor	1	0.7370849458966404
91.5032834809972	1	prelearning	nonviolation	1	B	95	scene	indoor	1	0.6291269480716437
94.50324240000921	1	prelearning	violation	1	A	43	scene	outdoor	1	0.6041636080481112
97.50320356001612	1	prelearning	violation	1	B	41	scene	indoor	1	0.4562190360156819
100.50316114898304	1	prelearning	violation	1	A	47	scene	outdoor	1	0.4992484900867567
103.50312799005768	1	prelearning	violation	1	A	42	scene	indoor	1	0.5672855549491942
106.50308004498949	1	prelearning	violation	1	B	46	scene	indoor	1	0.617341311997734
109.5030414829962	1	learning	nonviolation	2	A	89	scene	outdoor	1	0.5813731689704582
112.50300478597636	1	learning	nonviolation	2	B	89	scene	outdoor	1	0.595404482097365
115.50296723202335	1	learning	nonviolation	2	A	90	scene	outdoor	1	0.6684478039387614
118.50291730696337	1	learning	nonviolation	2	B	90	scene	indoor	1	0.6174959490308538
121.50287642900366	1	learning	violation	2	A	41	scene	outdoor	1	0.4565389769850299
124.50282652198806	1	learning	violation	2	B	41	scene	indoor	1	0.4585922070546076
127.50279441999737	1	learning	violation	2	A	42	scene	indoor	1	0.4276236919686198
130.50275476602837	1	learning	violation	2	B	42	scene	indoor	1	0.5306610190309584
133.50271470006555	1	learning	nonviolation	2	A	91	scene	indoor	1	0.5266979809384793
136.5026725550415	1	learning	nonviolation	2	B	91	scene	outdoor	1	0.7707485719583929
139.50263167906087	1	learning	violation	2	A	43	scene	outdoor	1	0.5047828139504418
142.50258997199126	1	learning	violation	2	B	43	scene	outdoor	1	0.5978354889666662
145.50254866096657	1	learning	violation	2	A	44	scene	outdoor	1	0.4858651621034369
148.50251280597877	1	learning	violation	2	B	44	scene	indoor	1	0.7129107300424948
151.5024690959835	1	learning	violation	2	A	45	scene	indoor	1	0.6719570109853521
154.5024309799774	1	learning	violation	2	B	45	scene	outdoor	1	0.5569900780683383
157.50238623307087	1	learning	nonviolation	2	A	92	scene	indoor	1	0.5780363929225132
160.50234358606394	1	learning	nonviolation	2	B	92	scene	indoor	1	0.6910772769479081
163.50231432996225	1	learning	violation	2	A	46	scene	indoor	1	0.4861049720784649
166.50226380303502	1	learning	violation	2	B	46	scene	indoor	1	0.4681559760356322
169.5022222920088	1	learning	nonviolation	3	A	90	scene	outdoor	1	0.7062008930370212
172.50218081206552	1	learning	nonviolation	3	B	90	scene	indoor	1	0.5152383350068703
175.5021403960418	1	learning	violation	2	A	47	scene	outdoor	1	0.5122823029523715
178.50209905998784	1	learning	violation	2	B	47	scene	outdoor	1	0.443323414074257
181.50206595100465	1	learning	nonviolation	3	A	89	scene	outdoor	1	0.7213656719541177
184.50201829406436	1	learning	nonviolation	3	B	89	scene	outdoor	1	0.5734032419277355
187.50197716406547	1	learning	violation	3	A	44	scene	outdoor	1	0.5864490868989378
190.50194219301918	1	learning	violation	3	B	44	scene	indoor	1	0.6834795729955658
193.5019016540609	1	learning	nonviolation	3	A	91	scene	indoor	1	0.5504432829329744
196.5018604910001	1	learning	nonviolation	3	B	91	scene	outdoor	1	0.5225628260523081
199.50181882607285	1	learning	violation	3	A	46	scene	indoor	1	0.5206076569156721
202.5017709310632	1	learning	violation	3	B	46	scene	indoor	1	0.4716599339153618
205.50172676297368	1	learning	violation	3	A	47	scene	outdoor	1	0.4036978920921683
208.50168975000267	1	learning	violation	3	B	47	scene	outdoor	1	0.4997319979593158
211.5016461580526	1	learning	nonviolation	2	A	93	scene	outdoor	1	0.6986968779237941
214.5016092200531	1	learning	nonviolation	2	B	93	scene	outdoor	1	0.6498174539301544
217.5015735650668	1	learning	violation	4	A	46	scene	indoor	1	0.6458510858938098
220.50153244205285	1	learning	violation	4	B	46	scene	indoor	1	0.5878949349280447
223.5014955420047	1	learning	nonviolation	4	A	90	scene	outdoor	1	0.5299301820341498
226.50145365402568	1	learning	nonviolation	4	B	90	scene	indoor	1	0.5269837169907987
229.50140153802934	1	learning	violation	3	A	41	scene	outdoor	1	0.5250310649862513
232.50135845504698	1	learning	violation	3	B	41	scene	indoor	1	0.464072410017252
235.50131696602332	1	learning	nonviolation	2	A	94	scene	indoor	1	0.5641095970058814
238.50127696106208	1	learning	nonviolation	2	B	94	scene	indoor	1	0.5461506219580771
241.50124117301309	1	learning	violation	3	A	43	scene	outdoor	1	0.5621064499719068
244.50119125097993	1	learning	violation	3	B	43	scene	outdoor	1	0.4662382600363344
247.5011595810065	1	learning	violation	3	A	42	scene	indoor	1	0.6391887629870325
250.5011116960086	1	learning	violation	3	B	42	scene	indoor	1	0.6343452379805967
253.5010815149872	1	learning	violation	2	A	48	scene	indoor	1	0.4963423720328137
256.5010319229914	1	learning	violation	2	B	48	scene	outdoor	1	0.4893971900455654
259.50098627305124	1	learning	violation	3	A	45	scene	indoor	1	0.6064475249731913
262.5009552449919	1	learning	violation	3	B	45	scene	outdoor	1	0.5524717730004339
265.5009116460569	1	violation	violation	5	A	46	scene	indoor	1	0.6345191579312086
268.50086399400607	1	violation	violation	1	X	46	face	female	1	0.6105683989590034
271.5008353390731	1	learning	nonviolation	3	A	93	scene	outdoor	1	0.6506084579741582
274.5007824719651	1	learning	nonviolation	3	B	93	scene	outdoor	1	0.5116503940662369
277.5007389220409	1	learning	violation	4	A	44	scene	outdoor	1	0.4716969389701262
280.500698331045	1	learning	violation	4	B	44	scene	indoor	1	0.5147392660146579
283.5006579470355	1	learning	nonviolation	3	A	92	scene	indoor	1	0.7157740680268034
286.5006264200201	1	learning	nonviolation	3	B	92	scene	indoor	1	0.4898122960003093
289.50057584105525	1	learning	violation	4	A	45	scene	indoor	1	0.6578633999451995
292.5005373939639	1	learning	violation	4	B	45	scene	outdoor	1	0.8258991780458018
295.50049048906664	1	learning	nonviolation	4	A	91	scene	indoor	1	0.5789454999612644
298.50045072601637	1	learning	nonviolation	4	B	91	scene	outdoor	1	0.5239862189628184
301.50040902895853	1	learning	violation	4	A	42	scene	indoor	1	0.5230358990374953
304.5003667050041	1	learning	violation	4	B	42	scene	indoor	1	0.5800706819863989
307.50032797607133	1	learning	nonviolation	4	A	89	scene	outdoor	1	0.8991103179287165
310.5002986670006	1	learning	nonviolation	4	B	89	scene	outdoor	1	0.5331385000608861
313.50024378404487	1	learning	nonviolation	3	A	94	scene	indoor	1	0.8691986959893256
316.50020364404185	1	learning	nonviolation	3	B	94	scene	indoor	1	0.5742435830179602
319.5001633199863	1	restudy	violation	5	B	46	scene	indoor	1	0.5352867579786107
322.5001211090712	1	learning	violation	4	A	47	scene	outdoor	1	0.4493181649595499
325.50007597601507	1	learning	violation	4	B	47	scene	outdoor	1	0.3963659129804
328.5000684610568	1	restudy	nonviolation	5	B	90	scene	indoor	1	0.5533718689111993
331.48332282307086	1	learning	violation	4	A	43	scene	outdoor	1	0.4661132959881797
334.483278971049	1	learning	violation	4	B	43	scene	outdoor	1	0.466160082956776
337.4832365610637	1	learning	nonviolation	4	A	93	scene	outdoor	1	0.5412066879216582
340.4831964339828	1	learning	nonviolation	4	B	93	scene	outdoor	1	0.5652431549970061
343.49982970696874	1	learning	violation	4	A	41	scene	outdoor	1	0.5246147830039263
346.4998008320108	1	learning	violation	4	B	41	scene	indoor	0	0.3816432330058888
349.48307845904486	1	restudy	nonviolation	5	B	89	scene	outdoor	1	0.6853630499681458
352.48304553807253	1	violation	violation	5	A	45	scene	indoor	1	0.5963981219101697
355.482996967039	1	violation	violation	1	X	45	face	male	1	0.676451675943099
358.4829540810315	1	learning	nonviolation	4	A	92	scene	indoor	1	0.8404981220373884
361.4829190960154	1	learning	nonviolation	4	B	92	scene	indoor	1	0.6755283729871735
364.4828726240666	1	learning	violation	3	A	48	scene	indoor	1	0.7395777889760211
367.4828313380712	1	learning	violation	3	B	48	scene	outdoor	1	0.5156165499938652
370.48279478400946	1	restudy	nonviolation	6	B	89	scene	outdoor	1	0.5676547919865698
373.48275116202416	1	violation	violation	5	A	42	scene	indoor	1	0.6646973269525915
376.4827085849829	1	violation	violation	1	X	42	face	female	1	0.6057416190160438
379.48266666696867	1	restudy	nonviolation	5	B	92	scene	indoor	1	0.54378368309699
382.48262886703003	1	violation	violation	5	A	41	scene	outdoor	1	0.5968282630201429
385.4825862100115	1	violation	violation	1	X	41	face	female	1	0.4748646720545366
388.48254142003134	1	violation	violation	5	A	44	scene	outdoor	1	0.4289081499446184
391.48250492406083	1	violation	violation	1	X	44	face	female	1	0.5359508949331939
394.482464816072	1	restudy	nonviolation	5	B	91	scene	outdoor	1	0.5179845968959853
397.4824510560138	1	learning	nonviolation	4	A	94	scene	indoor	1	0.6659383410587907
400.48238184000365	1	learning	nonviolation	4	B	94	scene	indoor	1	0.5539843490114436
403.48233225499285	1	violation	violation	6	A	46	scene	indoor	1	0.5770351500250399
406.4822929269867	1	violation	violation	1	Y	46	face	female	1	0.5091633580159396
409.48225707700476	1	violation	violation	5	A	43	scene	outdoor	1	0.5751984419766814
412.48221284104517	1	violation	violation	1	X	43	face	male	1	0.5222352299606428
415.4821723359637	1	violation	violation	5	A	47	scene	outdoor	1	0.5492258000886068
418.48212985496497	1	violation	violation	1	X	47	face	male	1	0.7422655370319262
421.4820893730503	1	restudy	nonviolation	6	B	90	scene	indoor	1	0.5643635059241205
424.48206070298335	1	restudy	violation	5	B	44	scene	indoor	0	0.8483952620299533
427.48200509406166	1	restudy	nonviolation	5	B	93	scene	outdoor	1	0.6264515089569613
430.4819650780409	1	restudy	violation	5	B	43	scene	outdoor	1	0.6254907710244879
433.48192361404654	1	violation	violation	6	A	44	scene	outdoor	1	0.54153208702337
436.48189561103936	1	violation	violation	1	Y	44	face	female	1	0.6105630249949172
439.4818411170272	1	learning	nonviolation	2	A	95	scene	outdoor	1	0.5345296750310808
442.48180169600533	1	learning	nonviolation	2	B	95	scene	indoor	1	0.6036492179846391
445.4817776629934	1	restudy	violation	5	B	45	scene	outdoor	1	0.8636807050788775
448.4817261260469	1	learning	violation	4	A	48	scene	indoor	1	0.6317298649810255
451.48168039100716	1	learning	violation	4	B	48	scene	outdoor	1	0.621781914960593
454.48163531103637	1	restudy	violation	6	B	44	scene	indoor	1	0.5908207569736987
457.4815915829968	1	restudy	violation	5	B	47	scene	outdoor	1	0.6618680109968409
460.48155156301806	1	restudy	nonviolation	6	B	92	scene	indoor	1	0.5719039459945634
463.4815200989833	1	restudy	nonviolation	5	B	94	scene	indoor	1	0.5879345830762759
466.48147176997736	1	restudy	violation	5	B	42	scene	indoor	1	0.5349904870381579
469.4814265719615	1	restudy	violation	6	B	46	scene	indoor	1	0.474034556071274
472.48138206196023	1	restudy	violation	5	B	41	scene	indoor	1	0.4750725020421669
475.4813427539775	1	restudy	nonviolation	6	B	91	scene	outdoor	1	0.5211169740650803
478.4813148060348	1	learning	nonviolation	2	A	96	scene	indoor	1	0.7491443769540638
481.4812695250148	1	learning	nonviolation	2	B	96	scene	outdoor	1	0.5921920889522879
484.4812195369741	1	violation	violation	6	A	47	scene	outdoor	1	0.5542373560601845
487.4811839619651	1	violation	violation	1	Y	47	face	male	1	0.4842760860919952
490.4811397510348	1	learning	nonviolation	3	A	95	scene	outdoor	1	0.5913243269314991
493.48109619203024	1	learning	nonviolation	3	B	95	scene	indoor	1	0.4943644449813291
496.4810540539911	1	violation	violation	6	A	42	scene	indoor	1	0.5294116319855675
499.4810147830285	1	violation	violation	1	Y	42	face	female	1	0.5374766249442473
502.48097062902525	1	learning	nonviolation	3	A	96	scene	indoor	1	0.7054916999768466
505.48093079903634	1	learning	nonviolation	3	B	96	scene	outdoor	1	0.5725343989906833
508.480890456005	1	restudy	nonviolation	6	B	93	scene	outdoor	1	0.6815763079794124
511.4808510569856	1	violation	violation	6	A	43	scene	outdoor	1	0.528610400040634
514.4808058410417	1	violation	violation	1	Y	43	face	male	1	0.7666536609176546
517.4807641080115	1	violation	violation	5	A	48	scene	indoor	1	0.7057006560498849
520.4807351509809	1	violation	violation	1	X	48	face	male	1	0.6597309100907296
523.4806854029885	1	restudy	nonviolation	6	B	94	scene	indoor	1	0.5917768500512466
526.4806496660458	1	learning	nonviolation	4	A	96	scene	indoor	0	0.5658222759375349
529.4806058029644	1	learning	nonviolation	4	B	96	scene	outdoor	1	0.6378651070408523
532.4805559429807	1	learning	nonviolation	4	A	95	scene	outdoor	0	0.6908346660202369
535.4805153990163	1	learning	nonviolation	4	B	95	scene	indoor	1	0.6049528600415215
538.4804759849794	1	violation	violation	6	A	45	scene	indoor	1	0.6039861150784418
541.4804376610555	1	violation	violation	1	Y	45	face	male	1	0.6510373089695349
544.4803969589993	1	restudy	violation	5	B	48	scene	outdoor	1	0.5410731950541958
547.4803528509801	1	restudy	nonviolation	5	B	96	scene	outdoor	1	0.5371144770178944
550.480310011073	1	restudy	violation	6	B	43	scene	outdoor	1	0.5561540439957753
553.4802724820329	1	restudy	violation	6	B	42	scene	indoor	1	0.6551989519502968
556.480228009983	1	violation	violation	6	A	41	scene	outdoor	1	0.479242020053789
559.4801850620424	1	violation	violation	1	Y	41	face	female	1	0.4872855389257893
562.4801452870015	1	restudy	nonviolation	5	B	95	scene	indoor	1	0.6383218360133469
565.480098998989	1	restudy	violation	6	B	47	scene	outdoor	1	0.5713787510758266
568.4800663540373	1	restudy	nonviolation	6	B	96	scene	outdoor	1	0.4484112069476396
571.480019968003	1	violation	violation	6	A	48	scene	indoor	1	0.5574548679869622
574.4799829800612	1	violation	violation	1	Y	48	face	male	1	0.5484917109133676
577.4799402500503	1	restudy	violation	6	B	45	scene	outdoor	1	0.7355349089484662
580.4798959010512	1	restudy	violation	6	B	41	scene	indoor	1	0.627581491949968
583.4798538959585	1	restudy	violation	6	B	48	scene	outdoor	1	0.5286218681139871
586.4798143310472	1	restudy	nonviolation	6	B	95	scene	indoor	1	0.5076604859204963
