onset	duration	trial_type	condition	repetition	pairmate	pairID	category	subcategory	response_accuracy	response_time
13.510171076981349	1	prelearning	nonviolation	1	B	59	scene	outdoor	1	0.6384102939628065
16.510149698005993	1	prelearning	violation	1	B	13	scene	indoor	1	0.6594376099528745
19.510092476964928	1	prelearning	nonviolation	1	A	59	scene	outdoor	1	0.5444915250409395
22.510052558965977	1	prelearning	nonviolation	1	A	62	scene	indoor	1	0.5835304249776527
25.51001272595022	1	prelearning	violation	1	B	12	scene	outdoor	1	0.4845653480151668
28.509971825988032	1	prelearning	violation	1	A	15	scene	outdoor	1	0.6046112399781123
31.50993379298598	1	prelearning	nonviolation	1	A	57	scene	indoor	1	0.6906497169984505
34.5098946369253	1	prelearning	violation	1	A	12	scene	indoor	1	0.6296799350529909
37.50986046390608	1	prelearning	nonviolation	1	B	57	scene	outdoor	1	0.6437225870322436
40.5098143479554	1	prelearning	nonviolation	1	B	58	scene	outdoor	1	0.6006833929568529
43.509775357902974	1	prelearning	violation	1	A	16	scene	indoor	1	0.5858092290582135
46.50973348994739	1	prelearning	violation	1	A	10	scene	outdoor	1	0.5758500220254064
49.509703540010385	1	prelearning	nonviolation	1	A	61	scene	indoor	1	0.771879045991227
52.50965538690798	1	prelearning	nonviolation	1	A	63	scene	outdoor	1	0.5279268471058458
55.509613761911176	1	prelearning	nonviolation	1	B	61	scene	indoor	1	0.6499720650026575
58.509575931937434	1	prelearning	nonviolation	1	B	63	scene	indoor	1	0.7450126360636204
61.50953749299515	1	prelearning	violation	1	B	14	scene	indoor	1	0.6500441109528765
64.50949366600253	1	prelearning	violation	1	B	15	scene	outdoor	1	0.5840875880094245
67.50945456000046	1	prelearning	violation	1	A	14	scene	outdoor	1	0.7021309050032869
70.50941559998319	1	prelearning	nonviolation	1	B	60	scene	indoor	0	0.4861734199803322
73.50937353400514	1	prelearning	nonviolation	1	B	64	scene	outdoor	1	0.572211435995996
76.50933252100367	1	prelearning	violation	1	B	16	scene	indoor	1	0.6382509618997574
79.50929103197996	1	prelearning	violation	1	B	9	scene	outdoor	1	0.4543274639872834
82.50925322901458	1	prelearning	nonviolation	1	B	62	scene	indoor	1	0.5623417788883671
85.50921354501044	1	prelearning	violation	1	A	9	scene	indoor	1	0.5423746769083664
88.50917348393705	1	prelearning	violation	1	B	11	scene	indoor	1	0.5894173510605469
91.50913477397991	1	prelearning	violation	1	B	10	scene	outdoor	1	0.8034520199289545
94.50909980700816	1	prelearning	violation	1	A	13	scene	outdoor	1	0.4524895909707993
97.50905474298634	1	prelearning	nonviolation	1	A	58	scene	indoor	1	0.7485353989759459
100.50901319400872	1	prelearning	violation	1	A	11	scene	indoor	1	0.5325757649261504
103.5089723590063	1	prelearning	nonviolation	1	A	60	scene	outdoor	1	0.8046209659660235
106.5089327249443	1	prelearning	nonviolation	1	A	64	scene	outdoor	1	0.5086608360288665
109.50890181190334	1	learning	nonviolation	2	A	57	scene	indoor	1	0.5646804220741615
112.50885221490171	1	learning	nonviolation	2	B	57	scene	outdoor	1	0.4906549201114103
115.5088138859719	1	learning	nonviolation	2	A	58	scene	indoor	1	0.6737802450079471
118.50877796090208	1	learning	nonviolation	2	B	58	scene	outdoor	1	0.5078117150114849
121.50874794390984	1	learning	nonviolation	2	A	59	scene	outdoor	1	0.5108492630533874
124.50868966896088	1	learning	nonviolation	2	B	59	scene	outdoor	1	0.4809035729849711
127.50865929794963	1	learning	nonviolation	2	A	60	scene	outdoor	1	0.6639299050439149
130.50860793690666	1	learning	nonviolation	2	B	60	scene	indoor	0	0.5249938390916213
133.5085735929897	1	learning	violation	2	A	9	scene	indoor	1	0.8470185439800844
136.5085295169847	1	learning	violation	2	B	9	scene	outdoor	1	0.6340614960063249
139.49181132297963	1	learning	nonviolation	3	A	58	scene	indoor	1	0.6697841050336137
142.4917718669167	1	learning	nonviolation	3	B	58	scene	outdoor	1	0.4928257060237229
145.491730005946	1	learning	violation	2	A	10	scene	outdoor	1	0.458866024040617
148.49169216491282	1	learning	violation	2	B	10	scene	outdoor	1	0.5139069280121475
151.49165251490194	1	learning	violation	2	A	11	scene	indoor	1	0.8349442681064829
154.4916075329529	1	learning	violation	2	B	11	scene	indoor	1	0.873990488005802
157.4915671889903	1	learning	violation	2	A	12	scene	indoor	1	0.6960290849674493
160.4915346589405	1	learning	violation	2	B	12	scene	outdoor	1	0.5650661670370027
163.491493050009	1	learning	violation	2	A	13	scene	outdoor	1	0.4711080879205838
166.49145857593976	1	learning	violation	2	B	13	scene	indoor	1	0.6051382590085268
169.49140896392055	1	learning	violation	3	A	11	scene	indoor	1	0.6121900900034234
172.4913728359388	1	learning	violation	3	B	11	scene	indoor	1	0.5402265599695966
175.49133247195275	1	learning	nonviolation	2	A	61	scene	indoor	1	0.5662460949970409
178.4912938849302	1	learning	nonviolation	2	B	61	scene	indoor	1	0.5953062269836664
181.49125281197482	1	learning	nonviolation	2	A	62	scene	indoor	1	0.5353510780259967
184.4912823379273	1	learning	nonviolation	2	B	62	scene	indoor	1	0.7633231560466811
187.49117774097252	1	learning	nonviolation	3	A	57	scene	indoor	1	0.7154259129893035
190.4911249110009	1	learning	nonviolation	3	B	57	scene	outdoor	1	0.4634047489380464
193.49109684291759	1	learning	nonviolation	3	A	60	scene	outdoor	1	0.6415067840134725
196.491047874908	1	learning	nonviolation	3	B	60	scene	indoor	0	0.5485588340088725
199.49101130990312	1	learning	violation	3	A	9	scene	indoor	1	0.7305927870329469
202.4909795479616	1	learning	violation	3	B	9	scene	outdoor	1	0.5866224250057712
205.4909296329133	1	learning	nonviolation	3	A	59	scene	outdoor	1	0.605675472994335
208.49088712898083	1	learning	nonviolation	3	B	59	scene	outdoor	1	0.4907188059296459
211.49089413299225	1	learning	violation	3	A	13	scene	outdoor	1	0.5467107730219141
214.4908073859988	1	learning	violation	3	B	13	scene	indoor	1	0.5857995579717681
217.49076674098615	1	learning	nonviolation	3	A	61	scene	indoor	1	0.5638363360194489
220.49072590097785	1	learning	nonviolation	3	B	61	scene	indoor	1	0.5718781489413232
223.49069212691398	1	learning	violation	3	A	12	scene	indoor	1	0.6279114370699972
226.49064358696342	1	learning	violation	3	B	12	scene	outdoor	1	0.6049611429916695
229.49061364191584	1	learning	violation	4	A	11	scene	indoor	1	0.6339950930560008
232.49056016793477	1	learning	violation	4	B	11	scene	indoor	1	0.5660428180126473
235.49053576891308	1	learning	nonviolation	4	A	58	scene	indoor	1	0.5439865560038015
238.49050042300948	1	learning	nonviolation	4	B	58	scene	outdoor	1	0.816107511986047
241.4904401139356	1	learning	violation	4	A	13	scene	outdoor	1	0.5571698429994285
244.49039668997284	1	learning	violation	4	B	13	scene	indoor	1	0.5432151670102029
247.4903602709528	1	learning	violation	4	A	12	scene	indoor	1	0.6382437699940056
250.4903195789084	1	learning	violation	4	B	12	scene	outdoor	1	0.6202933640452102
253.4902801249409	1	learning	violation	3	A	10	scene	outdoor	1	0.5183325649704784
256.4902326299343	1	learning	violation	3	B	10	scene	outdoor	1	0.3913792540552095
259.4901936899405	1	learning	nonviolation	4	A	57	scene	indoor	1	0.5434170239605011
262.49015939899255	1	learning	nonviolation	4	B	57	scene	outdoor	1	0.5904563429066911
265.4901197949657	1	learning	nonviolation	4	A	61	scene	indoor	1	0.5394989410415292
268.4900709319627	1	learning	nonviolation	4	B	61	scene	indoor	1	0.5765398360090329
271.49003622692544	1	learning	nonviolation	3	A	62	scene	indoor	1	0.5165784750133753
274.48999276792165	1	learning	nonviolation	3	B	62	scene	indoor	1	0.4686206410406157
277.4899492339464	1	learning	nonviolation	4	A	60	scene	outdoor	1	0.6416649629827589
280.489911892917	1	learning	nonviolation	4	B	60	scene	indoor	0	0.5546973220771179
283.48986781190615	1	learning	violation	4	A	9	scene	indoor	1	0.5587444260017946
286.4898327969713	1	learning	violation	4	B	9	scene	outdoor	1	0.5237839489709586
289.4897834949661	1	learning	nonviolation	4	A	59	scene	outdoor	1	0.4728376920102164
292.48974359501153	1	learning	nonviolation	4	B	59	scene	outdoor	1	0.509870940935798
295.48970248398837	1	restudy	nonviolation	5	B	58	scene	outdoor	1	0.5279095920268446
298.48969472991297	1	violation	violation	5	A	11	scene	indoor	1	0.6009173170896247
301.4896222349489	1	violation	violation	1	X	11	face	female	1	0.8149913860252127
304.48958009190386	1	restudy	nonviolation	5	B	57	scene	outdoor	1	0.5570452740648761
307.48954087600583	1	learning	violation	4	A	10	scene	outdoor	1	0.6030810549855232
310.48949861491565	1	learning	violation	4	B	10	scene	outdoor	1	0.6311181790661067
313.489457587013	1	restudy	nonviolation	6	B	58	scene	outdoor	1	0.5271674249088392
316.4894313029945	1	restudy	nonviolation	6	B	57	scene	outdoor	1	0.5901848279172555
319.4893809619825	1	restudy	nonviolation	5	B	59	scene	outdoor	1	0.5122393990168348
322.4893338769907	1	learning	nonviolation	4	A	62	scene	indoor	1	0.7732876889640465
325.48929377296014	1	learning	nonviolation	4	B	62	scene	indoor	0	0.7773259519599378
328.4892523669405	1	learning	violation	2	A	14	scene	outdoor	1	0.4993654780555517
331.4892120209988	1	learning	violation	2	B	14	scene	indoor	1	0.8184100989019498
334.4891711929813	1	violation	violation	5	A	12	scene	indoor	1	0.6024526619585231
337.48912861396093	1	violation	violation	1	X	12	face	male	1	0.6654882479924709
340.4890891039977	1	restudy	nonviolation	5	B	60	scene	indoor	0	0.5235298399347812
343.4890516030136	1	violation	violation	5	A	13	scene	outdoor	1	0.5625670528970659
346.4890144969104	1	violation	violation	1	X	13	face	female	1	0.7036099510733038
349.48896962392615	1	learning	nonviolation	2	A	63	scene	outdoor	1	0.5866562480805442
352.48892332101235	1	learning	nonviolation	2	B	63	scene	indoor	1	0.8887014149222523
355.4888895729091	1	learning	violation	3	A	14	scene	outdoor	1	0.542651302064769
358.48884308896965	1	learning	violation	3	B	14	scene	indoor	1	0.5377789189806208
361.4888032819144	1	learning	violation	2	A	15	scene	outdoor	1	0.43883069208823133
364.48876083991485	1	learning	violation	2	B	15	scene	outdoor	1	0.6038605460198596
367.48872119095176	1	restudy	nonviolation	5	B	61	scene	indoor	1	0.5859028470003977
370.48867918993346	1	restudy	nonviolation	5	B	62	scene	indoor	1	0.6009446560638025
373.4886350499	1	restudy	violation	5	B	13	scene	indoor	1	0.7499867510050535
376.48859464295685	1	restudy	violation	5	B	11	scene	indoor	1	0.6170123430201784
379.48855403892236	1	violation	violation	5	A	9	scene	indoor	1	0.6150729990331456
382.48851758195093	1	violation	violation	1	X	9	face	male	1	0.5751123509835452
385.48847769899294	1	learning	violation	2	A	16	scene	indoor	1	0.6811536989407614
388.4884326559258	1	learning	violation	2	B	16	scene	indoor	1	0.5761944950791076
391.48838871391484	1	violation	violation	6	A	11	scene	indoor	1	0.524239479098469
394.4883492540103	1	violation	violation	1	Y	11	face	female	1	0.6402760219061747
397.4883077479899	1	violation	violation	5	A	10	scene	outdoor	1	0.5143213350092992
400.4882677299902	1	violation	violation	1	X	10	face	male	1	0.5543607309227809
403.4882376939057	1	restudy	violation	5	B	12	scene	outdoor	1	0.5973888270091265
406.4881848689402	1	learning	nonviolation	2	A	64	scene	outdoor	1	0.6254371890099719
409.48814668296836	1	learning	nonviolation	2	B	64	scene	outdoor	0	1.1034844809910282
412.48810240498284	1	learning	nonviolation	3	A	63	scene	outdoor	1	0.6525251889834179
415.4880619979231	1	learning	nonviolation	3	B	63	scene	indoor	1	0.5625662180827931
418.4880213459255	1	restudy	violation	5	B	9	scene	outdoor	1	0.5296087929746136
421.4879800929921	1	restudy	nonviolation	6	B	59	scene	outdoor	1	0.4596714209765196
424.487939161947	1	learning	nonviolation	4	A	63	scene	outdoor	1	0.5656976499594748
427.48789836198563	1	learning	nonviolation	4	B	63	scene	indoor	1	0.6937346520135179
430.48785772500565	1	restudy	nonviolation	6	B	60	scene	indoor	0	0.40877790097147226
433.4878143669339	1	restudy	violation	6	B	11	scene	indoor	1	0.9388208590680732
436.4877737349598	1	learning	violation	3	A	15	scene	outdoor	1	0.44389224704355
439.4877361649415	1	learning	violation	3	B	15	scene	outdoor	1	0.40689557406585664
442.487693986972	1	restudy	nonviolation	6	B	62	scene	indoor	1	0.5809435360133648
445.4876537029632	1	violation	violation	6	A	13	scene	outdoor	1	0.44298010296188295
448.48760973301245	1	violation	violation	1	Y	13	face	female	1	0.5670267899986356
451.48757260490686	1	learning	violation	4	A	14	scene	outdoor	1	0.5020613101078197
454.4875290329801	1	learning	violation	4	B	14	scene	indoor	1	0.5961091399658471
457.4874857990071	1	learning	violation	3	A	16	scene	indoor	1	0.6211538799107075
460.4874465779867	1	learning	violation	3	B	16	scene	indoor	1	0.5991885749390349
463.48741121892823	1	restudy	nonviolation	6	B	61	scene	indoor	1	0.4632240560604259
466.4873613639502	1	violation	violation	6	A	12	scene	indoor	1	0.5592775139957666
469.4873220379232	1	violation	violation	1	Y	12	face	male	1	0.5753120949957521
472.4873112379572	1	learning	violation	4	A	16	scene	indoor	1	0.5163251420017332
475.4872412079712	1	learning	violation	4	B	16	scene	indoor	1	0.5683943619951606
478.4871987109073	1	learning	violation	4	A	15	scene	outdoor	1	0.4794369100127369
481.4871489899233	1	learning	violation	4	B	15	scene	outdoor	1	0.519492703024298
484.48711727396585	1	learning	nonviolation	3	A	64	scene	outdoor	1	0.5015257219783962
487.4870752079878	1	learning	nonviolation	3	B	64	scene	outdoor	1	0.4705633339472115
490.48703443899285	1	violation	violation	5	A	16	scene	indoor	1	0.6176066439365968
493.4869951399742	1	violation	violation	1	X	16	face	female	1	0.5296515509253368
496.486952680978	1	restudy	violation	5	B	10	scene	outdoor	1	0.8136864500120282
499.48691019194666	1	violation	violation	5	A	15	scene	outdoor	1	0.4707308460492641
502.4868776249932	1	violation	violation	1	X	15	face	male	1	0.6187648510094732
505.4868282179813	1	restudy	violation	6	B	13	scene	indoor	1	0.6838146209483966
508.48679699492635	1	violation	violation	6	A	10	scene	outdoor	1	0.5208463290473446
511.4867579969578	1	violation	violation	1	Y	10	face	male	1	0.6068915090290831
514.4867186759367	1	violation	violation	6	A	9	scene	indoor	1	0.5299214250408113
517.4866688559996	1	violation	violation	1	Y	9	face	male	1	0.5448898349422961
520.4866243239958	1	restudy	nonviolation	5	B	63	scene	indoor	1	0.5749364160001278
523.4865868269699	1	violation	violation	5	A	14	scene	outdoor	1	0.5760565400123596
526.4865410570054	1	violation	violation	1	X	14	face	female	1	0.5671044389018789
529.486500998959	1	learning	nonviolation	4	A	64	scene	outdoor	1	0.5731410910375416
532.4864613249665	1	learning	nonviolation	4	B	64	scene	outdoor	1	0.5651838759658858
535.4864177899435	1	restudy	nonviolation	6	B	63	scene	indoor	1	0.5932260609697549
538.4863756319974	1	restudy	violation	6	B	10	scene	outdoor	1	0.6552755219163373
541.4863375659334	1	restudy	violation	5	B	16	scene	indoor	1	0.905308778048493
544.4862935579149	1	restudy	violation	5	B	15	scene	outdoor	1	0.6753509549889714
547.4862534200074	1	restudy	nonviolation	5	B	64	scene	outdoor	1	0.6423903629183769
550.4862130059628	1	restudy	violation	6	B	12	scene	outdoor	1	0.7224381170235574
553.4861808329588	1	restudy	violation	6	B	9	scene	outdoor	1	0.5034613959724084
556.4861310779817	1	restudy	violation	5	B	14	scene	indoor	1	0.6665208579506725
559.486088237958	1	violation	violation	6	A	16	scene	indoor	1	0.5905591580085456
562.4860458939802	1	violation	violation	1	Y	16	face	female	1	0.7616025649476796
565.4860046729444	1	violation	violation	6	A	15	scene	outdoor	1	0.5776458519976586
568.4859643569216	1	violation	violation	1	Y	15	face	male	1	0.6336819940479472
571.4859268149594	1	restudy	nonviolation	6	B	64	scene	outdoor	1	0.6957242659991607
574.4858857300133	1	violation	violation	6	A	14	scene	outdoor	1	0.5527632049052045
577.4858412349131	1	violation	violation	1	Y	14	face	female	1	0.5238136030966416
580.4857991399476	1	restudy	violation	6	B	15	scene	outdoor	1	0.5918566159671172
583.4857585349819	1	restudy	violation	6	B	16	scene	indoor	1	0.8158922910224646
586.4857176499207	1	restudy	violation	6	B	14	scene	indoor	1	0.7549361559795216
