onset	duration	trial_type	condition	response_accuracy	response_time
13.508393589996556	2.5	A	nonviolation	1	1.0450279120013874
16.50500886199734	2.5	A	violation	1	0.9064096700021764
19.50497030999759	2.5	A	violation	1	1.012466829000914
22.504931853996826	2.5	B	nonviolation	0	1.2344982510003322
25.50489305099836	2.5	B	violation	1	1.421610551999038
28.50485300599757	2.5	A	nonviolation	1	0.8166436659994359
31.504812809998842	2.5	B	violation	0	0.9536068029992748
34.50477318499907	2.5	B	violation	1	1.0406564459990475
37.50473327299915	2.5	A	violation	1	0.7816873800002213
40.50469377099944	2.5	B	nonviolation	0	1.4417336499973317
43.50465243699728	2.5	B	nonviolation	0	1.4267765120021068
46.50461671499943	2.5	A	nonviolation	1	1.0148042879991408
49.50457434099735	2.5	A	nonviolation	1	1.0028506820017355
52.50453289399957	2.5	B	nonviolation	0	1.6488891059998425
55.5044919489992	2.5	A	nonviolation	1	1.3609435159996792
58.504451785996935	2.5	A	violation	1	0.6619820209998579
61.50441475999833	2.5	A	nonviolation	1	0.9500124270016386
64.50437419299851	2.5	B	nonviolation	0	1.2870833890010545
67.50433476699982	2.5	B	nonviolation	1	1.3740911859968037
70.50429404699753	2.5	A	violation	1	1.0251425150017894
73.50425432699922	2.5	B	nonviolation	0	1.2681743819994151
76.50421433199881	2.5	A	violation	1	0.8322207880009955
79.50417624900001	2.5	A	nonviolation	1	0.877252360998682
82.50413212299827	2.5	B	violation	0	1.263291413000843
85.50409185499666	2.5	B	violation	0	1.4912705250026193
88.50405344799948	2.5	A	nonviolation	1	0.7483811429992784
91.50401072099704	2.5	A	nonviolation	1	0.8544164380000439
94.5039705399977	2.5	A	violation	1	0.9614560199988772
97.50393051399807	2.5	B	nonviolation	0	1.3315015650005082
100.50389059699957	2.5	B	violation	0	1.7035500499987393
103.50385212999754	2.5	A	violation	1	0.7995788619991799
106.50381135999851	2.5	A	nonviolation	1	0.9625047010013076
109.50376978599888	2.5	A	nonviolation	1	0.660666998999659
112.50373051699717	2.5	B	violation	1	1.1197072110007866
115.50369029399737	2.5	B	violation	0	1.3497445470020466
118.50364977499704	2.5	A	violation	1	0.8557900430023437
121.50360943799751	2.5	B	nonviolation	1	1.052821306999249
124.50356658299644	2.5	A	violation	1	0.9259007610016852
127.50352651499998	2.5	B	nonviolation	0	1.652913631998672
130.50348820399813	2.5	B	nonviolation	0	1.2009491659991909
133.50344832399787	2.5	B	violation	1	1.01701900199987
136.50340676199994	2.5	B	violation	0	1.4230390659977274
139.50336460599647	2.5	A	nonviolation	1	0.9310705770003552
142.50332557299768	2.5	B	violation	0	0.9031160660015304
145.50328501900003	2.5	B	nonviolation	0	1.3391567329999816
148.50324455999726	2.5	A	violation	1	1.0111927470024966
151.50320408799962	2.5	B	violation	0	1.1652334059981513
154.5031629269979	2.5	A	violation	1	1.2461979799991239
157.50312452099752	2.5	A	violation	1	0.9253130690012767
160.50308168599804	2.5	A	nonviolation	1	0.6303835350008741
163.50304147199859	2.5	A	nonviolation	1	0.9803191920000244
166.50299889499732	2.5	A	violation	1	0.880448014002468
169.50295993499822	2.5	B	nonviolation	0	0.9744850880015292
172.5029190449968	2.5	A	violation	1	0.8735220490016218
175.50287853599733	2.5	B	nonviolation	0	1.0806327020000026
178.50283755299824	2.5	A	nonviolation	1	1.428613084000972
181.50279553999644	2.5	B	violation	0	0.8945843540022906
184.5027562939977	2.5	A	violation	1	0.7206835360011609
187.5027138619989	2.5	A	nonviolation	1	0.9187545399981899
190.50267522799916	2.5	A	violation	1	0.8817710029979935
193.50263187599919	2.5	B	violation	0	0.9208189599994512
196.50259389599887	2.5	B	violation	0	1.3938506160011457
199.5025532969994	2.5	A	nonviolation	1	0.7238947209989419
202.50251269199725	2.5	B	violation	1	0.967929662001552
205.50246999999942	2.5	B	violation	1	0.7799087999992479
208.5024290469992	2.5	A	nonviolation	1	0.9930243460003112
211.5023893999969	2.5	A	nonviolation	1	1.18905537700266
214.50234950999948	2.5	B	nonviolation	0	1.0650968509980885
217.50230692099652	2.5	B	nonviolation	1	1.346118027002376
220.502267175998	2.5	A	nonviolation	1	0.8751815520008677
223.50222693699837	2.5	B	nonviolation	1	1.4602179629982857
226.5021861969981	2.5	A	nonviolation	1	0.7542885660004686
229.5021453919981	2.5	A	violation	1	0.71629977900011
232.5021045649992	2.5	B	violation	0	1.1233421029974124
235.50206408799926	2.5	B	nonviolation	1	1.8144857119987137
238.50202238599738	2.5	B	nonviolation	0	1.2934294440019585
241.5019862079971	2.5	A	violation	1	1.0934620990010444
244.50194041799838	2.5	B	nonviolation	1	1.0145071560000358
247.50190157499677	2.5	A	violation	1	0.8205485880025662
250.5018590029977	2.5	B	violation	1	1.6385913060003077
253.50181900599998	2.5	A	violation	1	0.6836468879992026
256.5017783509975	2.5	B	violation	1	1.2696728859991708
259.50173489399816	2.5	B	nonviolation	0	0.8397228100002394
262.5016994599973	2.5	A	nonviolation	1	1.003751824999199
265.50165394899886	2.5	B	nonviolation	0	0.9078014779988736
268.5016138909996	2.5	B	violation	1	1.55384093199973
271.50157209599996	2.5	A	violation	1	0.9588860779986136
274.5015336539982	2.5	B	violation	0	1.2899907669998356
277.48483556899737	2.5	B	violation	0	1.1856193880012142
280.50145473099843	2.5	B	nonviolation	0	1.169000080000842
283.5014140609965	2.5	A	violation	1	0.8189846090026549
286.5013728300001	2.5	A	violation	1	1.2070913339994152
289.5013266039969	2.5	A	nonviolation	1	0.8561312570018345
292.50128602999763	2.5	B	violation	0	1.2281661029992392
295.48457742399836	2.5	A	nonviolation	1	0.9678754740016302
298.484536734999	2.5	B	nonviolation	1	1.3559289179975167
301.48449757999697	2.5	A	violation	1	0.7449778670015803
304.48445434199675	2.5	A	nonviolation	1	0.6750037100027839
307.50108208799793	2.5	A	nonviolation	1	0.8213820970013329
310.48437056199685	2.5	B	nonviolation	0	1.3120934159996978
313.4843311119985	2.5	B	violation	1	1.1841291659984563
316.48429113499884	2.5	B	violation	1	1.2651767839997774
319.4842513949989	2.5	A	nonviolation	1	0.7182089509988145
322.484209293998	2.5	A	nonviolation	1	0.9452655439999944
325.4841700809993	2.5	A	violation	1	0.7803007339971373
328.4841279599968	2.5	A	nonviolation	1	0.7393380330031505
331.4840902129981	2.5	B	violation	1	0.9903731490012432
334.48404600199865	2.5	A	violation	1	0.8833970470004715
337.48400508399936	2.5	A	nonviolation	1	0.7515194980005617
340.4839639779966	2.5	B	violation	1	1.6735127360007027
343.4839228929996	2.5	B	nonviolation	0	1.5265412569970067
346.48388358899683	2.5	B	nonviolation	1	1.6464419290023216
349.48384065399665	2.5	B	violation	1	1.0606216340020185
352.4837996259994	2.5	A	violation	1	0.7216806489996088
355.4837583419976	2.5	A	nonviolation	1	1.0337288590017124
358.4837177549999	2.5	A	violation	1	0.7477448059980816
361.48367639599746	2.5	B	violation	1	0.9697879980012658
364.48363541099746	2.5	B	violation	1	0.7178292300013709
367.48359434499804	2.5	B	nonviolation	0	1.4167982799990568
370.4835541389984	2.5	B	nonviolation	0	1.0679151399999682
373.48351189799723	2.5	B	nonviolation	0	1.4819868609993136
376.4834707199989	2.5	A	nonviolation	1	0.7320057309989352
379.48342969199797	2.5	B	violation	0	0.8990428379984223
382.48338847599723	2.5	B	nonviolation	0	1.0160428650015092
385.483355139997	2.5	A	nonviolation	1	0.9221124780015088
388.4833059959965	2.5	A	nonviolation	1	0.8591600120016665
391.4832665499998	2.5	A	violation	1	0.9581998069988912
394.48322207099767	2.5	B	violation	0	0.9222620860018652
397.4831842979984	2.5	A	violation	1	0.8972928309995041
400.4831471099969	2.5	A	violation	1	0.6763237320010376
403.4831003779982	2.5	B	violation	0	1.1543797480007925
406.4830574919979	2.5	B	nonviolation	0	0.983416409999336
409.48301770999745	2.5	A	violation	1	0.7134667760001321
412.4829772479969	2.5	B	nonviolation	0	1.1584945680006058
415.48293321799787	2.5	B	nonviolation	0	1.4495464550018369
418.4828941369997	2.5	A	violation	1	0.5745712649986672
421.4828530289997	2.5	B	violation	0	1.1036180679984682
424.48281217399926	2.5	A	nonviolation	1	1.0666625159974499
427.4827691459978	2.5	A	violation	1	0.9497014590015168
430.482727609	2.5	B	nonviolation	0	1.3497427489965048
433.4826884529976	2.5	A	violation	1	0.8107863219993305
436.48264759599994	2.5	B	violation	1	1.11982660799913
439.4826065249981	2.5	B	nonviolation	1	1.4698697040003026
442.4825655269997	2.5	A	nonviolation	1	1.1649122879971399
445.4825236749966	2.5	B	nonviolation	1	1.2540200630028266
448.4824823529998	2.5	A	nonviolation	1	0.7660738220001804
451.4824413729984	2.5	A	nonviolation	1	0.9080370240008052
454.4824003729991	2.5	A	violation	1	0.8810815289980383
457.4823591689965	2.5	A	violation	1	0.6701172820030479
460.4823171289973	2.5	A	violation	1	0.7981625280008302
463.48227719299757	2.5	B	violation	1	0.5882024990023638
466.4822358749989	2.5	A	nonviolation	1	1.0532491160010975
469.4821947889977	2.5	B	violation	0	0.9393613460015332
472.48215345499915	2.5	A	violation	1	0.6643302119991858
475.4821101919988	2.5	B	violation	0	0.7693727410005522
478.48206880000004	2.5	B	violation	1	1.1674151889965287
481.48202876999864	2.5	B	violation	0	0.8194593039988831
484.4819883329983	2.5	A	nonviolation	1	0.8184977060009259
487.48194538999815	2.5	A	nonviolation	1	1.2505350979990908
490.4819059109978	2.5	B	nonviolation	1	1.4915756180016615
493.48186451999936	2.5	A	violation	1	1.1116121589984689
496.48182299799737	2.5	A	nonviolation	1	0.9016663360016536
499.48178256699975	2.5	B	nonviolation	0	1.161698322997836
502.48174108199964	2.5	A	violation	1	0.8487640849998571
505.48170021199996	2.5	A	nonviolation	1	0.7017860719970486
508.48165719899765	2.5	B	nonviolation	1	0.9048298119996616
511.48161773999885	2.5	A	violation	1	0.8828653259988641
514.4815758649967	2.5	B	violation	1	0.7219053420012642
517.4815352959995	2.5	A	nonviolation	1	0.6439516479986196
520.481494069998	2.5	B	nonviolation	0	1.0309936789999483
523.4814519059983	2.5	B	violation	0	0.9980380300003162
526.481411261997	2.5	A	nonviolation	1	1.0930460570016294
529.4813703139989	2.5	B	violation	1	0.7241141909980797
532.4813292209983	2.5	B	nonviolation	1	1.195137947001058
535.4812877789991	2.5	B	nonviolation	0	0.8822048119982355
538.4812487309973	2.5	B	nonviolation	0	1.2622426609996182
541.4812036409967	2.5	A	violation	1	0.6252819860019372
544.4811638079991	2.5	A	violation	1	0.672295739997935
547.4811224769983	2.5	B	nonviolation	1	1.2083725619995676
550.4810818299993	2.5	B	violation	1	0.8664057069981936
553.4810394179985	2.5	A	violation	1	0.5734591770014958
556.4809964029992	2.5	B	nonviolation	0	0.8945000909989176
559.4809578539971	2.5	A	nonviolation	1	0.8615394299995387
562.4809160689983	2.5	A	nonviolation	1	0.5625759969989303
565.4808749399998	2.5	B	violation	0	0.7156242309974914
568.4808336469978	2.5	B	nonviolation	0	1.5276687699988545
571.4807931729993	2.5	A	violation	1	1.3707003669987898
574.4807501019968	2.5	A	violation	1	0.6287721170010627
577.4807081419967	2.5	B	nonviolation	1	0.7057831010024529
580.4806681339977	2.5	A	nonviolation	1	0.9358310460011126
583.4806279599981	2.5	B	violation	0	1.4258670900017023
586.4805867389987	2.5	B	violation	1	0.8649147239993908
