onset	duration	trial_type	condition	repetition	pairmate	pairID	category	subcategory	response_accuracy	response_time
13.50378109398298	1	postlearning	violation	2	n/a	48	face	male	1	0.6985885949980002
16.503772925992962	1	postlearning	violation	2	n/a	24	face	male	1	0.4906009270052891
19.50371485998039	1	postlearning	violation	2	n/a	5	face	male	1	0.4616841360111721
22.50367197199375	1	postlearning	violation	2	n/a	26	face	male	1	0.4717019860108849
25.50362673899508	1	postlearning	violation	2	n/a	11	face	male	1	0.4767419710115064
28.50357958298991	1	postlearning	violation	2	n/a	2	face	female	1	0.4347920120053459
31.50353092898149	1	postlearning	violation	2	n/a	16	face	male	1	0.4858454690256622
34.50350698598777	1	postlearning	violation	2	n/a	37	face	male	1	0.4618675300152972
37.503463523986284	1	postlearning	violation	2	n/a	36	face	male	1	0.4509097910195123
40.503422057983705	1	postlearning	violation	2	n/a	22	face	female	1	0.4809560569992754
43.50338242598809	1	postlearning	violation	2	n/a	1	face	male	1	0.8929903270036448
46.503330838982954	1	postlearning	violation	2	n/a	45	face	female	1	0.4970497120229993
49.50329219698324	1	postlearning	violation	2	n/a	5	face	male	1	0.4940809640102089
52.5032524690032	1	postlearning	violation	2	n/a	33	face	male	1	0.5061281789967325
55.50321294300375	1	postlearning	violation	2	n/a	18	face	female	1	0.43316898299963214
58.50317306999932	1	postlearning	violation	2	n/a	45	face	female	1	0.4931246119958814
61.503127706004314	1	postlearning	violation	2	n/a	41	face	female	1	0.4802477329794783
64.50308997099637	1	postlearning	violation	2	n/a	4	face	female	1	0.4542853460006882
67.5030484799936	1	postlearning	violation	2	n/a	21	face	female	1	0.6093344069959129
70.50301155698253	1	postlearning	violation	2	n/a	12	face	male	1	0.5773768500075676
73.50296744098887	1	postlearning	violation	2	n/a	9	face	female	1	0.6034120719996281
76.50292363099287	1	postlearning	violation	2	n/a	30	face	male	1	0.4534565279900562
79.50289013198928	1	postlearning	violation	2	n/a	21	face	female	1	0.5194915739994029
82.5028485049843	1	postlearning	violation	2	n/a	40	face	female	1	0.52652965701418
85.5028111989959	1	postlearning	violation	2	n/a	11	face	male	1	0.5305653930117842
88.50276167198898	1	postlearning	violation	2	n/a	34	face	female	1	0.5216202700103167
91.50273388199275	1	postlearning	violation	2	n/a	46	face	male	1	0.5736402150068898
94.50268542100092	1	postlearning	violation	2	n/a	15	face	male	1	0.4766903239942621
97.50264335999964	1	postlearning	violation	2	n/a	3	face	female	1	0.4617375769885257
100.5026026800042	1	postlearning	violation	2	n/a	39	face	female	1	0.5187765059818048
103.50255621099495	1	postlearning	violation	2	n/a	46	face	male	1	0.5048261639894918
106.50252105298568	1	postlearning	violation	2	n/a	2	face	female	1	0.5218579630018212
109.50247427800787	1	postlearning	violation	2	n/a	20	face	male	1	0.5089058319863398
112.50244116000248	1	postlearning	violation	2	n/a	41	face	female	1	0.5869453529885504
115.50240191898773	1	postlearning	violation	2	n/a	35	face	female	1	0.5319797320116777
118.502357838006	1	postlearning	violation	2	n/a	29	face	male	1	0.5740262100007385
121.50231410600828	1	postlearning	violation	2	n/a	22	face	female	1	0.6220714189985301
124.50227896499563	1	postlearning	violation	2	n/a	43	face	female	1	0.6091035050048959
127.50222862599185	1	postlearning	violation	2	n/a	25	face	female	1	0.5501594840025064
130.50219915198977	1	postlearning	violation	2	n/a	14	face	female	1	0.5261849230155349
133.50215384399053	1	postlearning	violation	2	n/a	23	face	male	1	0.5422331079898868
136.5021045600006	1	postlearning	violation	2	n/a	40	face	female	1	0.5442805479979143
139.5020599380077	1	postlearning	violation	2	n/a	28	face	female	1	0.5043324629950803
142.50202934298432	1	postlearning	violation	2	n/a	34	face	female	1	0.648354252014542
145.5019854159909	1	postlearning	violation	2	n/a	48	face	male	1	0.4413993630150799
148.50193581898932	1	postlearning	violation	2	n/a	28	face	female	1	0.5394562210130971
151.50190439200378	1	postlearning	violation	2	n/a	19	face	male	1	0.5114860539906658
154.50185549698654	1	postlearning	violation	2	n/a	35	face	female	1	0.4815362660156097
157.5018268499989	1	postlearning	violation	2	n/a	7	face	male	1	0.4535631359904073
160.50178018998122	1	postlearning	violation	2	n/a	9	face	female	1	0.4616070730262436
163.5017394729948	1	postlearning	violation	2	n/a	6	face	female	1	0.4586459790007211
166.50169834998087	1	postlearning	violation	2	n/a	17	face	female	1	0.4786941670172382
169.50164997400134	1	postlearning	violation	2	n/a	19	face	male	1	0.5077384710020851
172.50162085500781	1	postlearning	violation	2	n/a	38	face	male	1	0.4957743469858542
175.50156937600696	1	postlearning	violation	2	n/a	37	face	male	1	0.4758197589835618
178.50153407800823	1	postlearning	violation	2	n/a	15	face	male	1	0.5178575099853333
181.50149241799957	1	postlearning	violation	2	n/a	8	face	male	1	0.5048951009812299
184.50145233699	1	postlearning	violation	2	n/a	8	face	male	1	0.5009402520081494
187.501404545008	1	postlearning	violation	2	n/a	47	face	male	1	0.490988004981773
190.50136196799576	1	postlearning	violation	2	n/a	31	face	female	1	0.4659750190039631
193.5013153959881	1	postlearning	violation	2	n/a	3	face	female	1	0.5140773770108353
196.5012849769846	1	postlearning	violation	2	n/a	17	face	female	1	0.4951142900099512
199.5012387559982	1	postlearning	violation	2	n/a	20	face	male	1	0.6701582320092712
202.50119788100707	1	postlearning	violation	2	n/a	42	face	male	1	0.5591983699996489
205.50115102899144	1	postlearning	violation	2	n/a	4	face	female	1	0.6602457929984666
208.50111814300183	1	postlearning	violation	2	n/a	42	face	male	1	0.5682782199874055
211.50107872398803	1	postlearning	violation	2	n/a	31	face	female	1	0.6173181170015596
214.5010298139823	1	postlearning	violation	2	n/a	23	face	male	1	0.5683654440217651
217.5010010469996	1	postlearning	violation	2	n/a	43	face	female	1	0.4493950479954947
220.50095395598328	1	postlearning	violation	2	n/a	33	face	male	1	0.5414437040162738
223.5009055119881	1	postlearning	violation	2	n/a	6	face	female	1	0.6444978560029995
226.5008619430009	1	postlearning	violation	2	n/a	44	face	female	1	0.5415364000073168
229.5008332679863	1	postlearning	violation	2	n/a	13	face	female	1	0.5595633710036054
232.50078386400128	1	postlearning	violation	2	n/a	10	face	female	1	0.5876161879859865
235.50074602698442	1	postlearning	violation	2	n/a	10	face	female	1	0.49564820801606396
238.5006964149943	1	postlearning	violation	2	n/a	36	face	male	1	0.5017022590036504
241.5006585319934	1	postlearning	violation	2	n/a	39	face	female	1	0.4907406720158178
244.5006257499917	1	postlearning	violation	2	n/a	27	face	female	1	0.5357773269934114
247.50057422998358	1	postlearning	violation	2	n/a	32	face	male	1	0.4618281900184229
250.5005404810072	1	postlearning	violation	2	n/a	38	face	male	1	0.5538597619743086
253.50049439998108	1	postlearning	violation	2	n/a	47	face	male	1	0.5069076170038898
256.5004523319949	1	postlearning	violation	2	n/a	14	face	female	1	0.4389476999931503
259.50040777298267	1	postlearning	violation	2	n/a	29	face	male	1	0.4809994570096024
262.50036705998355	1	postlearning	violation	2	n/a	12	face	male	1	0.6590331309998874
265.5003238019999	1	postlearning	violation	2	n/a	18	face	female	1	0.4970846319920384
268.50028658800875	1	postlearning	violation	2	n/a	44	face	female	1	0.5641197259828914
271.5002512869833	1	postlearning	violation	2	n/a	32	face	male	1	0.4991527820238844
274.5002025599824	1	postlearning	violation	2	n/a	7	face	male	1	0.7891992689983454
277.50016664498247	1	postlearning	violation	2	n/a	25	face	female	1	0.5082457149983384
280.50012440100545	1	postlearning	violation	2	n/a	13	face	female	1	0.6072799160028808
283.5000805559976	1	postlearning	violation	2	n/a	24	face	male	1	0.7643187280045822
286.50004114198964	1	postlearning	violation	2	n/a	1	face	male	1	0.643391972000245
289.5000025329937	1	postlearning	violation	2	n/a	26	face	male	1	0.5284036459925119
292.4999540179852	1	postlearning	violation	2	n/a	27	face	female	1	0.4594569280161522
295.48324102599867	1	postlearning	violation	2	n/a	16	face	male	1	0.6561669780057855
298.48318948299857	1	postlearning	violation	2	n/a	30	face	male	1	0.5722169049840886
