onset	duration	trial_type	reward_condition	condition	repetition	pairmate	pairID	response_accuracy	response_time
13.509301718993811	2.5	scene	reward	violation	1	A	6	1	0.8973038679978345
16.00930171899381	3.0	feedback	n/a	n/a	n/a	n/a	n/a	n/a	n/a
19.509229524992406	2.5	scene	reward	nonviolation	1	A	96	0	1.882396314002108
22.009229524992403	3.0	feedback	n/a	n/a	n/a	n/a	n/a	n/a	n/a
25.50913945399225	2.5	scene	neutral	violation	1	A	13	1	1.4064586410240736
28.00913945399225	3.0	feedback	n/a	n/a	n/a	n/a	n/a	n/a	n/a
31.50906404200941	2.5	scene	reward	violation	1	A	47	1	0.7715365339827258
34.00906404200941	3.0	feedback	n/a	n/a	n/a	n/a	n/a	n/a	n/a
37.508977598015925	2.5	scene	reward	nonviolation	1	A	52	0	1.2286244569986593
40.008977598015925	3.0	feedback	n/a	n/a	n/a	n/a	n/a	n/a	n/a
43.508897088002406	2.5	scene	reward	nonviolation	1	A	55	1	0.8377121720113792
46.008897088002406	3.0	feedback	n/a	n/a	n/a	n/a	n/a	n/a	n/a
49.508822914009215	2.5	scene	neutral	nonviolation	1	A	63	1	1.50777942899731
52.008822914009215	3.0	feedback	n/a	n/a	n/a	n/a	n/a	n/a	n/a
55.50873886799673	2.5	scene	reward	violation	1	A	44	1	0.7358687329979148
58.00873886799673	3.0	feedback	n/a	n/a	n/a	n/a	n/a	n/a	n/a
61.508660947991295	2.5	scene	neutral	violation	1	A	32	1	0.8229517620056868
64.00866094799129	3.0	feedback	n/a	n/a	n/a	n/a	n/a	n/a	n/a
67.5085757310153	2.5	scene	reward	nonviolation	1	A	93	1	1.0100366889964791
70.0085757310153	3.0	feedback	n/a	n/a	n/a	n/a	n/a	n/a	n/a
73.50849523901707	2.5	scene	neutral	nonviolation	1	A	59	0	1.2511151229846291
76.00849523901707	3.0	feedback	n/a	n/a	n/a	n/a	n/a	n/a	n/a
79.50841470999877	2.5	scene	reward	violation	1	A	14	0	1.035193627991248
82.00841470999877	3.0	feedback	n/a	n/a	n/a	n/a	n/a	n/a	n/a
85.50834072899306	2.5	scene	neutral	nonviolation	1	A	87	1	0.873271582997404
88.00834072899305	3.0	feedback	n/a	n/a	n/a	n/a	n/a	n/a	n/a
91.50825297099071	2.5	scene	reward	nonviolation	1	A	78	1	0.8883567270240746
94.00825297099071	3.0	feedback	n/a	n/a	n/a	n/a	n/a	n/a	n/a
97.50817997500415	2.5	scene	neutral	nonviolation	1	A	53	0	1.546428414003458
100.00817997500415	3.0	feedback	n/a	n/a	n/a	n/a	n/a	n/a	n/a
103.50809011000092	2.5	scene	neutral	nonviolation	1	A	89	1	1.0205213529989123
106.00809011000092	3.0	feedback	n/a	n/a	n/a	n/a	n/a	n/a	n/a
109.5080105200177	2.5	scene	neutral	nonviolation	1	A	80	1	1.0275982489984017
112.0080105200177	3.0	feedback	n/a	n/a	n/a	n/a	n/a	n/a	n/a
115.50793425599112	2.5	scene	reward	nonviolation	1	A	60	1	1.205675377015723
118.00793425599112	3.0	feedback	n/a	n/a	n/a	n/a	n/a	n/a	n/a
121.50784825198934	2.5	scene	reward	nonviolation	1	A	76	1	0.73376366001321
124.00784825198934	3.0	feedback	n/a	n/a	n/a	n/a	n/a	n/a	n/a
127.50776838400635	2.5	scene	neutral	violation	1	A	28	1	1.0938499300100375
130.00776838400634	3.0	feedback	n/a	n/a	n/a	n/a	n/a	n/a	n/a
133.5076874239894	2.5	scene	reward	violation	1	A	26	1	0.6059230050013866
136.0076874239894	3.0	feedback	n/a	n/a	n/a	n/a	n/a	n/a	n/a
139.50760414701654	2.5	scene	neutral	violation	1	A	24	0	1.4770095639978535
142.00760414701654	3.0	feedback	n/a	n/a	n/a	n/a	n/a	n/a	n/a
145.50753029901534	2.5	scene	reward	nonviolation	1	A	88	1	0.6720808849786408
148.00753029901534	3.0	feedback	n/a	n/a	n/a	n/a	n/a	n/a	n/a
151.5074517739995	2.5	scene	neutral	violation	1	A	33	1	1.5191665610182101
154.0074517739995	3.0	feedback	n/a	n/a	n/a	n/a	n/a	n/a	n/a
157.50736180899548	2.5	scene	reward	violation	1	A	12	1	0.7252522630151361
160.00736180899548	3.0	feedback	n/a	n/a	n/a	n/a	n/a	n/a	n/a
163.5072799829941	2.5	scene	reward	violation	1	A	7	1	1.0073417749954388
166.0072799829941	3.0	feedback	n/a	n/a	n/a	n/a	n/a	n/a	n/a
169.50720037301653	2.5	scene	reward	nonviolation	1	A	61	0	0.6514182579994667
172.00720037301656	3.0	feedback	n/a	n/a	n/a	n/a	n/a	n/a	n/a
175.50712701599696	2.5	scene	reward	nonviolation	1	A	81	0	1.856494408013532
178.00712701599696	3.0	feedback	n/a	n/a	n/a	n/a	n/a	n/a	n/a
181.50703783999782	2.5	scene	neutral	violation	1	A	41	0	1.2935816750105005
184.00703783999782	3.0	feedback	n/a	n/a	n/a	n/a	n/a	n/a	n/a
187.5069652280072	2.5	scene	neutral	violation	1	A	22	0	0.8916577830095775
190.0069652280072	3.0	feedback	n/a	n/a	n/a	n/a	n/a	n/a	n/a
193.50688507399173	2.5	scene	reward	violation	1	A	17	0	1.2817390380077995
196.00688507399173	3.0	feedback	n/a	n/a	n/a	n/a	n/a	n/a	n/a
199.50680123100759	2.5	scene	reward	nonviolation	1	A	67	1	0.7568265899899416
202.00680123100759	3.0	feedback	n/a	n/a	n/a	n/a	n/a	n/a	n/a
205.50672458301412	2.5	scene	reward	violation	1	A	31	1	0.6408986719907261
208.00672458301412	3.0	feedback	n/a	n/a	n/a	n/a	n/a	n/a	n/a
211.50664132399837	2.5	scene	neutral	violation	1	A	1	0	1.067984166991664
214.00664132399837	3.0	feedback	n/a	n/a	n/a	n/a	n/a	n/a	n/a
217.48988374101464	2.5	scene	reward	violation	1	A	20	1	0.6597410319955088
219.98988374101464	3.0	feedback	n/a	n/a	n/a	n/a	n/a	n/a	n/a
223.5064816329977	2.5	scene	neutral	violation	1	A	16	1	1.0521473200060427
226.0064816329977	3.0	feedback	n/a	n/a	n/a	n/a	n/a	n/a	n/a
229.48972681100716	2.5	scene	reward	violation	1	A	40	1	0.7689132610103115
231.98972681100716	3.0	feedback	n/a	n/a	n/a	n/a	n/a	n/a	n/a
235.489647481998	2.5	scene	neutral	nonviolation	1	A	77	1	1.011982836003881
237.989647481998	3.0	feedback	n/a	n/a	n/a	n/a	n/a	n/a	n/a
241.48956527799598	2.5	scene	neutral	nonviolation	1	A	86	0	0.9100672250206115
243.98956527799598	3.0	feedback	n/a	n/a	n/a	n/a	n/a	n/a	n/a
247.4894826780073	2.5	scene	reward	nonviolation	1	A	70	1	0.6421466550091282
249.9894826780073	3.0	feedback	n/a	n/a	n/a	n/a	n/a	n/a	n/a
253.4894035269972	2.5	scene	neutral	nonviolation	1	A	49	1	0.8382325489947107
255.9894035269972	3.0	feedback	n/a	n/a	n/a	n/a	n/a	n/a	n/a
259.48932180399424	2.5	scene	neutral	nonviolation	1	A	68	1	1.2173062130168546
261.98932180399424	3.0	feedback	n/a	n/a	n/a	n/a	n/a	n/a	n/a
265.48924397100933	2.5	scene	reward	violation	1	A	36	1	0.6373840779997408
267.98924397100933	3.0	feedback	n/a	n/a	n/a	n/a	n/a	n/a	n/a
271.4891637219989	2.5	scene	neutral	violation	1	A	48	1	1.3083997190115042
273.9891637219989	3.0	feedback	n/a	n/a	n/a	n/a	n/a	n/a	n/a
277.48908212201786	2.5	scene	neutral	nonviolation	1	A	65	1	0.996554314973764
279.98908212201786	3.0	feedback	n/a	n/a	n/a	n/a	n/a	n/a	n/a
283.48898867500253	2.5	scene	neutral	violation	1	A	4	1	1.28364964199136
285.98898867500253	3.0	feedback	n/a	n/a	n/a	n/a	n/a	n/a	n/a
289.4889148469956	2.5	scene	neutral	violation	1	A	39	0	1.1387225990183651
291.9889148469956	3.0	feedback	n/a	n/a	n/a	n/a	n/a	n/a	n/a
295.48883851300343	2.5	scene	neutral	nonviolation	1	A	90	1	1.1457968750037253
297.98883851300343	3.0	feedback	n/a	n/a	n/a	n/a	n/a	n/a	n/a
301.48875759000657	2.5	scene	neutral	violation	2	A	24	1	0.9848775279824622
303.98875759000657	3.0	feedback	n/a	n/a	n/a	n/a	n/a	n/a	n/a
307.49322676300653	2.5	scene	reward	nonviolation	2	A	93	1	0.6354062749887817
309.99322676300653	3.0	feedback	n/a	n/a	n/a	n/a	n/a	n/a	n/a
313.493028900004	2.5	scene	reward	violation	2	A	7	1	0.5876055569970049
315.993028900004	3.0	feedback	n/a	n/a	n/a	n/a	n/a	n/a	n/a
319.49261864999426	2.5	scene	neutral	violation	2	A	41	1	0.6540389500150923
321.99261864999426	3.0	feedback	n/a	n/a	n/a	n/a	n/a	n/a	n/a
325.49241009599064	2.5	scene	neutral	violation	2	A	4	1	0.6422274120268412
327.99241009599064	3.0	feedback	n/a	n/a	n/a	n/a	n/a	n/a	n/a
331.48841008200543	2.5	scene	reward	violation	2	A	26	1	0.5942250670050271
333.98841008200543	3.0	feedback	n/a	n/a	n/a	n/a	n/a	n/a	n/a
337.4921796699928	2.5	scene	neutral	nonviolation	2	A	59	0	1.3374660320114344
339.9921796699928	3.0	feedback	n/a	n/a	n/a	n/a	n/a	n/a	n/a
343.490980039991	2.5	scene	neutral	nonviolation	2	A	90	1	0.6686603740090504
345.990980039991	3.0	feedback	n/a	n/a	n/a	n/a	n/a	n/a	n/a
349.4914922780008	2.5	scene	reward	violation	2	A	44	1	0.6320690349966753
351.9914922780008	3.0	feedback	n/a	n/a	n/a	n/a	n/a	n/a	n/a
355.4910084220173	2.5	scene	reward	violation	2	A	20	1	0.5656322719878517
357.9910084220173	3.0	feedback	n/a	n/a	n/a	n/a	n/a	n/a	n/a
361.4915232729982	2.5	scene	neutral	nonviolation	2	A	63	1	0.9391275249945464
363.9915232729982	3.0	feedback	n/a	n/a	n/a	n/a	n/a	n/a	n/a
367.4893353370135	2.5	scene	neutral	violation	2	A	16	1	0.7163069050002377
369.9893353370135	3.0	feedback	n/a	n/a	n/a	n/a	n/a	n/a	n/a
373.4898412789917	2.5	scene	reward	nonviolation	2	A	70	1	0.6398047860129736
375.9898412789917	3.0	feedback	n/a	n/a	n/a	n/a	n/a	n/a	n/a
379.4895865360159	2.5	scene	reward	violation	2	A	47	1	0.7360621589759829
381.9895865360159	3.0	feedback	n/a	n/a	n/a	n/a	n/a	n/a	n/a
385.4893801319995	2.5	scene	reward	violation	2	A	31	1	0.6172743560164236
387.9893801319995	3.0	feedback	n/a	n/a	n/a	n/a	n/a	n/a	n/a
391.48919049199316	2.5	scene	neutral	violation	2	A	39	1	0.9044602340145502
393.98919049199316	3.0	feedback	n/a	n/a	n/a	n/a	n/a	n/a	n/a
397.48899202700704	2.5	scene	neutral	nonviolation	2	A	49	1	0.6436537409899756
399.98899202700704	3.0	feedback	n/a	n/a	n/a	n/a	n/a	n/a	n/a
403.48778484799556	2.5	scene	reward	nonviolation	2	A	81	1	1.1238671470200643
405.98778484799556	3.0	feedback	n/a	n/a	n/a	n/a	n/a	n/a	n/a
409.48830958700273	2.5	scene	neutral	nonviolation	2	A	68	1	0.6673394840036053
411.98830958700273	3.0	feedback	n/a	n/a	n/a	n/a	n/a	n/a	n/a
415.4876139340049	2.5	scene	reward	nonviolation	2	A	67	1	0.6649646830046549
417.9876139340049	3.0	feedback	n/a	n/a	n/a	n/a	n/a	n/a	n/a
421.48715964800795	2.5	scene	neutral	violation	2	A	13	1	0.9154929329815786
423.98715964800795	3.0	feedback	n/a	n/a	n/a	n/a	n/a	n/a	n/a
427.48740777999046	2.5	scene	neutral	violation	2	A	28	1	0.6771662350220141
429.98740777999046	3.0	feedback	n/a	n/a	n/a	n/a	n/a	n/a	n/a
433.4869894750008	2.5	scene	reward	violation	2	A	40	1	0.9916613539971876
435.9869894750008	3.0	feedback	n/a	n/a	n/a	n/a	n/a	n/a	n/a
439.48692046199	2.5	scene	neutral	nonviolation	2	A	80	1	0.6667305800074246
441.98692046199	3.0	feedback	n/a	n/a	n/a	n/a	n/a	n/a	n/a
445.4868314540072	2.5	scene	reward	violation	2	A	6	1	0.7107566839840729
447.9868314540072	3.0	feedback	n/a	n/a	n/a	n/a	n/a	n/a	n/a
451.4867614250106	2.5	scene	reward	nonviolation	2	A	52	1	0.8218946190027054
453.9867614250106	3.0	feedback	n/a	n/a	n/a	n/a	n/a	n/a	n/a
457.4866702840082	2.5	scene	reward	nonviolation	2	A	76	1	0.7379849019926041
459.9866702840082	3.0	feedback	n/a	n/a	n/a	n/a	n/a	n/a	n/a
463.4865901379962	2.5	scene	reward	nonviolation	2	A	88	1	0.6550669739954174
465.9865901379962	3.0	feedback	n/a	n/a	n/a	n/a	n/a	n/a	n/a
469.48651092400536	2.5	scene	reward	violation	2	A	12	1	0.890147602010984
471.98651092400536	3.0	feedback	n/a	n/a	n/a	n/a	n/a	n/a	n/a
475.4864388749993	2.5	scene	neutral	violation	2	A	33	1	0.7492273969983216
477.9864388749993	3.0	feedback	n/a	n/a	n/a	n/a	n/a	n/a	n/a
481.48635235300753	2.5	scene	neutral	violation	2	A	22	1	1.0613124709925614
483.98635235300753	3.0	feedback	n/a	n/a	n/a	n/a	n/a	n/a	n/a
487.4862684800173	2.5	scene	neutral	nonviolation	2	A	89	1	0.9693900399724952
489.9862684800173	3.0	feedback	n/a	n/a	n/a	n/a	n/a	n/a	n/a
493.4861968950137	2.5	scene	reward	nonviolation	2	A	61	1	0.9754602600005456
495.9861968950137	3.0	feedback	n/a	n/a	n/a	n/a	n/a	n/a	n/a
499.4861173779937	2.5	scene	reward	nonviolation	2	A	60	1	0.7335426369972993
501.9861173779937	3.0	feedback	n/a	n/a	n/a	n/a	n/a	n/a	n/a
505.4860323049943	2.5	scene	neutral	nonviolation	2	A	53	1	0.9256328160117846
507.9860323049943	3.0	feedback	n/a	n/a	n/a	n/a	n/a	n/a	n/a
511.4859586220118	2.5	scene	reward	nonviolation	2	A	78	1	0.933701772999484
513.9859586220118	3.0	feedback	n/a	n/a	n/a	n/a	n/a	n/a	n/a
517.4858714360162	2.5	scene	reward	nonviolation	2	A	96	1	1.0267961239733268
519.9858714360162	3.0	feedback	n/a	n/a	n/a	n/a	n/a	n/a	n/a
523.4857957529894	2.5	scene	neutral	nonviolation	2	A	87	1	0.8828698080033064
525.9857957529894	3.0	feedback	n/a	n/a	n/a	n/a	n/a	n/a	n/a
529.4857113109903	2.5	scene	neutral	nonviolation	2	A	77	1	0.6579552370239979
531.9857113109903	3.0	feedback	n/a	n/a	n/a	n/a	n/a	n/a	n/a
535.4856342099956	2.5	scene	neutral	nonviolation	2	A	65	1	0.6750300760031678
537.9856342099956	3.0	feedback	n/a	n/a	n/a	n/a	n/a	n/a	n/a
541.4855507180037	2.5	scene	neutral	violation	2	A	48	1	0.6351219899952412
543.9855507180037	3.0	feedback	n/a	n/a	n/a	n/a	n/a	n/a	n/a
547.4854793010163	2.5	scene	neutral	nonviolation	2	A	86	1	0.7862101809878368
549.9854793010163	3.0	feedback	n/a	n/a	n/a	n/a	n/a	n/a	n/a
553.4853892929968	2.5	scene	reward	violation	2	A	36	1	0.6412817290110979
555.9853892929968	3.0	feedback	n/a	n/a	n/a	n/a	n/a	n/a	n/a
559.4853082970076	2.5	scene	reward	violation	2	A	17	1	0.9093586399976629
561.9853082970076	3.0	feedback	n/a	n/a	n/a	n/a	n/a	n/a	n/a
565.4852280500054	2.5	scene	reward	violation	2	A	14	1	0.7424433759879321
567.9852280500054	3.0	feedback	n/a	n/a	n/a	n/a	n/a	n/a	n/a
571.4851485360123	2.5	scene	reward	nonviolation	2	A	55	1	0.7835370709944982
573.9851485360123	3.0	feedback	n/a	n/a	n/a	n/a	n/a	n/a	n/a
577.485070530005	2.5	scene	neutral	violation	2	A	1	1	0.9325997999985702
579.985070530005	3.0	feedback	n/a	n/a	n/a	n/a	n/a	n/a	n/a
583.4849872160121	2.5	scene	neutral	violation	2	A	32	1	0.6626843659905717
585.9849872160121	3.0	feedback	n/a	n/a	n/a	n/a	n/a	n/a	n/a
