onset	duration	trial_type	condition	repetition	pairmate	pairID	category	subcategory	response_accuracy	response_time
13.509462126065044	1	prelearning	violation	1	B	1	scene	outdoor	1	0.7537320639239624
16.509431920014322	1	prelearning	nonviolation	1	B	51	scene	outdoor	1	0.5477670410182327
19.509382775053385	1	prelearning	nonviolation	1	B	55	scene	indoor	1	0.7638162729563192
22.509355265065093	1	prelearning	violation	1	A	8	scene	indoor	1	0.6038458360126242
25.50930420006625	1	prelearning	nonviolation	1	A	54	scene	outdoor	1	0.5478973189601675
28.50926322198939	1	prelearning	violation	1	A	5	scene	indoor	1	0.7359390300698578
31.50922581006307	1	prelearning	nonviolation	1	A	49	scene	outdoor	1	0.5389722479740158
34.509182151057765	1	prelearning	violation	1	A	4	scene	outdoor	1	0.5790119719458744
37.509147080010734	1	prelearning	nonviolation	1	B	52	scene	indoor	1	0.5690608950098976
40.50910568097606	1	prelearning	nonviolation	1	B	54	scene	outdoor	1	0.4850958820898086
43.509075977024615	1	prelearning	violation	1	B	3	scene	outdoor	1	0.5121250320225954
46.50902628700714	1	prelearning	nonviolation	1	A	56	scene	indoor	1	0.5581699060276151
49.508988993009545	1	prelearning	violation	1	A	6	scene	outdoor	1	0.485218812013045
52.508944817003794	1	prelearning	nonviolation	1	A	51	scene	indoor	1	0.5832581820432097
55.50890857900959	1	prelearning	nonviolation	1	A	52	scene	outdoor	1	0.7202869650209323
58.50886348099447	1	prelearning	violation	1	B	4	scene	indoor	1	0.6573380819754675
61.50882696104236	1	prelearning	violation	1	A	1	scene	outdoor	1	0.4743776469258592
64.50878527900204	1	prelearning	nonviolation	1	A	53	scene	indoor	1	0.5434153310488911
67.50874241907151	1	prelearning	nonviolation	1	A	50	scene	indoor	1	0.5654567090095952
70.50871677207759	1	prelearning	violation	1	B	8	scene	outdoor	1	0.4504833639366552
73.5086725190049	1	prelearning	violation	1	A	7	scene	indoor	1	0.5885339670348912
76.50862383597996	1	prelearning	violation	1	A	3	scene	outdoor	1	0.5155799620551988
79.50859536498321	1	prelearning	nonviolation	1	B	56	scene	indoor	1	0.4646146730519831
82.50855736201629	1	prelearning	violation	1	B	2	scene	indoor	1	0.7716510059544817
85.50850335101131	1	prelearning	nonviolation	1	B	53	scene	indoor	1	0.8737062610452995
88.50846434803681	1	prelearning	violation	1	A	2	scene	indoor	1	0.5747396959923208
91.50842427299358	1	prelearning	nonviolation	1	A	55	scene	outdoor	1	0.5887772929854691
94.50838561099954	1	prelearning	violation	1	B	7	scene	outdoor	1	0.5088228799868375
97.50834214407949	1	prelearning	nonviolation	1	B	50	scene	outdoor	1	0.5098598899785429
100.50830372306518	1	prelearning	nonviolation	1	B	49	scene	outdoor	1	0.5759271630086005
103.50827155204023	1	prelearning	violation	1	B	5	scene	indoor	1	0.7429372719489038
106.50822007807436	1	prelearning	violation	1	B	6	scene	indoor	1	0.6060223549138755
109.50821259897201	1	learning	nonviolation	2	A	49	scene	outdoor	1	0.5689935070695356
112.50817020703109	1	learning	nonviolation	2	B	49	scene	outdoor	1	0.4940483090467751
115.50810407905372	1	learning	violation	2	A	1	scene	outdoor	1	0.4900247809709981
118.50807672296649	1	learning	violation	2	B	1	scene	outdoor	1	0.4801226470153779
121.5080295969965	1	learning	violation	2	A	2	scene	indoor	1	0.5271833040751517
124.5079808870796	1	learning	violation	2	B	2	scene	indoor	1	0.4942349880002439
127.5079408470774	1	learning	violation	2	A	3	scene	outdoor	1	0.554268927895464
130.50793151999824	1	learning	violation	2	B	3	scene	outdoor	1	0.4632765119895339
133.50787161500193	1	learning	nonviolation	3	A	49	scene	outdoor	1	0.556343607022427
136.50781853403893	1	learning	nonviolation	3	B	49	scene	outdoor	1	0.4863919999916106
139.50777904002462	1	learning	violation	2	A	4	scene	outdoor	1	0.468430393957533
142.50773897999898	1	learning	violation	2	B	4	scene	indoor	1	0.6024757929844782
145.50769941497128	1	learning	violation	3	A	2	scene	indoor	1	0.4975128991063684
148.49099581700284	1	learning	violation	3	B	2	scene	indoor	1	0.6682148199761286
151.49094190704636	1	learning	violation	2	A	5	scene	indoor	1	0.5242716789944097
154.4909033359727	1	learning	violation	2	B	5	scene	indoor	1	0.4433077860157937
157.49086281703785	1	learning	nonviolation	2	A	50	scene	indoor	1	0.4973569220164791
160.5074954209849	1	learning	nonviolation	2	B	50	scene	outdoor	1	0.4877154030837119
163.49077865097206	1	learning	nonviolation	2	A	51	scene	indoor	1	0.5864400070859119
166.50741530000232	1	learning	nonviolation	2	B	51	scene	outdoor	1	0.5238034049980342
169.49069827597125	1	learning	violation	2	A	6	scene	outdoor	1	0.5054839060176164
172.49066807597407	1	learning	violation	2	B	6	scene	indoor	1	0.620488892076537
175.4906295640394	1	learning	violation	3	A	4	scene	outdoor	1	0.4645919379545376
178.4905801080167	1	learning	violation	3	B	4	scene	indoor	1	0.5106479360256344
181.49053696903863	1	learning	nonviolation	2	A	52	scene	outdoor	1	0.6886824739631265
184.49049501505212	1	learning	nonviolation	2	B	52	scene	indoor	1	0.4687215629965067
187.49046163097958	1	learning	violation	3	A	3	scene	outdoor	1	0.4737590840086341
190.4904275190784	1	learning	violation	3	B	3	scene	outdoor	1	0.4937938388902694
193.4903823910281	1	learning	violation	2	A	7	scene	indoor	1	0.6938339549815282
196.49034367897548	1	learning	violation	2	B	7	scene	outdoor	1	0.4928715070709586
199.49030162603594	1	learning	nonviolation	3	A	50	scene	indoor	1	0.5189208060037345
202.4902598760091	1	learning	nonviolation	3	B	50	scene	outdoor	1	0.4849623210029677
205.490220319014	1	learning	nonviolation	4	A	49	scene	outdoor	1	0.5520056060049683
208.4901806600392	1	learning	nonviolation	4	B	49	scene	outdoor	1	0.5650413499679416
211.49013914004902	1	learning	violation	2	A	8	scene	indoor	1	0.5860506639583036
214.49010979698502	1	learning	violation	2	B	8	scene	outdoor	1	0.5181166760157794
217.49005876900628	1	learning	violation	3	A	5	scene	indoor	1	0.5281615270068869
220.49003158300187	1	learning	violation	3	B	5	scene	indoor	1	0.5131900400156155
223.48999139701482	1	learning	violation	3	A	1	scene	outdoor	1	0.5262326300144196
226.48996064206585	1	learning	violation	3	B	1	scene	outdoor	1	0.5032618299592286
229.4899088270031	1	restudy	nonviolation	5	B	49	scene	outdoor	1	0.4173167260596529
232.4898606960196	1	learning	violation	4	A	5	scene	indoor	1	0.5793649849947542
235.4898176509887	1	learning	violation	4	B	5	scene	indoor	1	0.4974043089896441
238.4897781390464	1	learning	violation	3	A	8	scene	indoor	1	0.5044509569415823
241.4897349710809	1	learning	violation	3	B	8	scene	outdoor	1	0.4874899869319052
244.4896962810308	1	learning	nonviolation	3	A	52	scene	outdoor	1	0.5695274289464578
247.4896666890709	1	learning	nonviolation	3	B	52	scene	indoor	1	0.5735573739511892
250.48961898707782	1	learning	violation	4	A	3	scene	outdoor	1	0.5356313009979203
253.48958550801038	1	learning	violation	4	B	3	scene	outdoor	1	0.4956379500217736
256.48954378301283	1	learning	violation	3	A	7	scene	indoor	1	0.5306788539746776
259.48950010805856	1	learning	violation	3	B	7	scene	outdoor	1	0.4737288859905675
262.48944867705	1	learning	nonviolation	3	A	51	scene	indoor	1	0.4747818659525365
265.4894223160809	1	learning	nonviolation	3	B	51	scene	outdoor	1	0.5318046089960262
268.4893793050433	1	learning	violation	4	A	2	scene	indoor	1	0.4868499180302024
271.4893406099873	1	learning	violation	4	B	2	scene	indoor	0	0.8078907890012488
274.4892852440244	1	learning	violation	4	A	1	scene	outdoor	1	0.5369425549870357
277.48927713604644	1	learning	violation	4	B	1	scene	outdoor	1	0.5029552379855886
280.48920509801246	1	learning	violation	3	A	6	scene	outdoor	1	0.5510249710641801
283.489167887019	1	learning	violation	3	B	6	scene	indoor	1	0.49406812002416706
286.48912806704175	1	learning	violation	4	A	8	scene	indoor	1	0.5041001959471032
289.4891023320379	1	learning	violation	4	B	8	scene	outdoor	1	0.5181380669819191
292.4890458079753	1	learning	nonviolation	2	A	53	scene	indoor	1	0.5101881920127198
295.4890049779788	1	learning	nonviolation	2	B	53	scene	indoor	1	0.7812282980885357
298.4889645660296	1	learning	violation	4	A	4	scene	outdoor	1	0.5012657139450312
301.48892943107063	1	learning	violation	4	B	4	scene	indoor	1	0.531311473925598
304.4888856910402	1	learning	nonviolation	4	A	50	scene	indoor	1	0.5333509419579059
307.48884589597577	1	learning	nonviolation	4	B	50	scene	outdoor	1	0.462383734062314
310.48880900105	1	restudy	nonviolation	6	B	49	scene	outdoor	1	0.5484258499927819
313.48876270500483	1	violation	violation	5	A	1	scene	outdoor	1	0.5344728420022875
316.48872072400985	1	violation	violation	1	X	1	face	male	1	0.6145158340223134
319.4886874629883	1	learning	violation	4	A	6	scene	outdoor	1	0.5905457590706646
322.48864570306614	1	learning	violation	4	B	6	scene	indoor	1	0.5285905029159039
325.4885989429895	1	violation	violation	5	A	8	scene	indoor	1	0.7736427600029856
328.48855916399043	1	violation	violation	1	X	8	face	male	1	0.6826490440871567
331.48852087697014	1	violation	violation	5	A	5	scene	indoor	1	0.5417148231063038
334.4884835539852	1	violation	violation	1	X	5	face	female	1	0.5037572780856863
337.48843758297147	1	learning	nonviolation	3	A	53	scene	indoor	1	0.5367993040708825
340.48839528497774	1	learning	nonviolation	3	B	53	scene	indoor	1	0.5588483840692788
343.48836195108015	1	violation	violation	5	A	4	scene	outdoor	1	0.5418724128976464
346.488320947974	1	violation	violation	1	X	4	face	female	1	0.5229194849962369
349.48828205303283	1	restudy	violation	5	B	5	scene	indoor	1	0.6319561470299959
352.48823321308015	1	learning	violation	4	A	7	scene	indoor	1	0.5840016739675775
355.48819877603086	1	learning	violation	4	B	7	scene	outdoor	1	0.5520409679738805
358.48815890098916	1	learning	nonviolation	4	A	52	scene	outdoor	1	0.6560810320079327
361.48811164707877	1	learning	nonviolation	4	B	52	scene	indoor	1	0.5431224919157103
364.4880776699865	1	learning	nonviolation	4	A	51	scene	indoor	1	0.5101648410782218
367.4880345610436	1	learning	nonviolation	4	B	51	scene	outdoor	1	0.5342070979531854
370.48799511999823	1	violation	violation	5	A	3	scene	outdoor	1	0.5282479249872267
373.48795573296957	1	violation	violation	1	X	3	face	male	1	0.6012885660165921
376.48790720198303	1	restudy	nonviolation	5	B	50	scene	outdoor	1	0.5503325930330902
379.4878667000448	1	restudy	violation	5	B	1	scene	outdoor	1	0.5253117509419098
382.48782599996775	1	violation	violation	5	A	2	scene	indoor	1	0.5814178991131485
385.4877916190308	1	violation	violation	1	X	2	face	female	1	0.47642064001411205
388.48774370097084	1	restudy	nonviolation	6	B	50	scene	outdoor	1	0.4455050310352817
391.4877107710345	1	restudy	violation	5	B	3	scene	outdoor	1	0.4795333410147578
394.48766820703173	1	learning	nonviolation	4	A	53	scene	indoor	1	0.5625723330304027
397.48762702103693	1	learning	nonviolation	4	B	53	scene	indoor	1	0.5956208480056375
400.4875809319783	1	violation	violation	6	A	5	scene	indoor	1	0.5336653550621122
403.4875457140152	1	violation	violation	1	Y	5	face	female	1	0.5586996480124071
406.487505231984	1	restudy	violation	5	B	4	scene	indoor	1	0.5457405510824174
409.48745958798105	1	violation	violation	6	A	3	scene	outdoor	1	0.4927922560600564
412.48742422403296	1	violation	violation	1	Y	3	face	male	1	0.597822456038557
415.4873743240023	1	violation	violation	5	A	6	scene	outdoor	1	0.5828767990460619
418.4873498600209	1	violation	violation	1	X	6	face	female	1	0.5828967719571665
421.487306947005	1	violation	violation	5	A	7	scene	indoor	1	0.4689429410500452
424.4872517810436	1	violation	violation	1	X	7	face	male	1	0.4849658110179007
427.48721876298083	1	restudy	violation	6	B	3	scene	outdoor	1	0.4210310250055045
430.48717317404225	1	restudy	violation	5	B	8	scene	outdoor	1	0.5730760069563985
433.4871373589849	1	violation	violation	6	A	4	scene	outdoor	1	0.4981101400917396
436.4870985890738	1	violation	violation	1	Y	4	face	female	1	0.5761515059275553
439.4870511699701	1	restudy	violation	5	B	6	scene	indoor	1	0.5581979050766677
442.4870154230157	1	restudy	nonviolation	5	B	53	scene	indoor	1	0.5322353959782049
445.48696633207146	1	restudy	nonviolation	5	B	52	scene	indoor	1	0.5422838889062405
448.4869220959954	1	learning	nonviolation	2	A	54	scene	outdoor	1	0.6343254609964788
451.4868853840744	1	learning	nonviolation	2	B	54	scene	outdoor	1	0.5913691289024428
454.48685628303787	1	learning	nonviolation	2	A	55	scene	outdoor	1	0.5684013810241595
457.48680899397004	1	learning	nonviolation	2	B	55	scene	indoor	1	0.7024424030678347
460.48676371597685	1	restudy	nonviolation	5	B	51	scene	outdoor	1	0.480506029096432
463.4867294720607	1	learning	nonviolation	2	A	56	scene	indoor	1	0.5035210279747844
466.48667986306833	1	learning	nonviolation	2	B	56	scene	indoor	1	0.6655741279246286
469.48664994305	1	restudy	violation	6	B	5	scene	indoor	1	0.5856029320275411
472.4866050770506	1	violation	violation	6	A	1	scene	outdoor	1	0.5926490080310032
475.48655650101136	1	violation	violation	1	Y	1	face	male	1	0.5297004700405523
478.48652350506745	1	restudy	violation	5	B	2	scene	indoor	1	0.8337326059117913
481.4864745619707	1	restudy	nonviolation	6	B	51	scene	outdoor	1	0.4807792450301349
484.4864350260468	1	restudy	violation	6	B	4	scene	indoor	1	0.5208259449573234
487.48640047106886	1	learning	nonviolation	3	A	54	scene	outdoor	1	0.5728533379733562
490.48635841102805	1	learning	nonviolation	3	B	54	scene	outdoor	1	0.5678986919810995
493.48631760303397	1	restudy	violation	5	B	7	scene	outdoor	1	0.46793638903182
496.4862779490649	1	restudy	violation	6	B	1	scene	outdoor	1	0.4809811519226059
499.4862375650555	1	restudy	nonviolation	6	B	53	scene	indoor	1	0.5960209319600835
502.48619403503835	1	learning	nonviolation	3	A	56	scene	indoor	1	0.470030948985368
505.4861484509893	1	learning	nonviolation	3	B	56	scene	indoor	1	0.5411094010341913
508.4861085229786	1	violation	violation	6	A	6	scene	outdoor	1	0.5101483970647678
511.4860721740406	1	violation	violation	1	Y	6	face	female	1	0.5581590100191534
514.4860257280525	1	learning	nonviolation	3	A	55	scene	outdoor	1	0.4982390209333971
517.4859853240196	1	learning	nonviolation	3	B	55	scene	indoor	1	0.5252735699759796
520.485945301014	1	violation	violation	6	A	8	scene	indoor	1	0.5033171890536323
523.4859058620641	1	violation	violation	1	Y	8	face	male	1	0.485357622965239
526.4858638090082	1	restudy	nonviolation	6	B	52	scene	indoor	1	0.5784036900149658
529.485828023986	1	learning	nonviolation	4	A	55	scene	outdoor	1	0.5294357599923387
532.4857898560585	1	learning	nonviolation	4	B	55	scene	indoor	1	0.4614724830025807
535.4857453310397	1	learning	nonviolation	4	A	56	scene	indoor	1	0.4885138060199097
538.4857010430424	1	learning	nonviolation	4	B	56	scene	indoor	1	0.4965585409663618
541.4856633930467	1	learning	nonviolation	4	A	54	scene	outdoor	1	0.4325913009233773
544.4856128679821	1	learning	nonviolation	4	B	54	scene	outdoor	1	0.5636545940069482
547.4855701939669	1	restudy	nonviolation	5	B	55	scene	indoor	1	0.5726948810042813
550.4855335419999	1	restudy	nonviolation	5	B	56	scene	indoor	1	0.4807307210285217
553.4854999100789	1	restudy	nonviolation	5	B	54	scene	outdoor	1	0.5207700959872454
556.485451273038	1	restudy	violation	6	B	6	scene	indoor	1	0.5488106639822945
559.4854090369771	1	violation	violation	6	A	2	scene	indoor	1	0.5788577100029215
562.4853769770125	1	violation	violation	1	Y	2	face	female	1	0.6768897899892181
565.4853297710653	1	restudy	nonviolation	6	B	56	scene	indoor	1	0.5289333079708739
568.4852855450008	1	restudy	nonviolation	6	B	55	scene	indoor	1	0.5629832589766011
571.4852539830607	1	restudy	nonviolation	6	B	54	scene	outdoor	1	0.5070125639904289
574.4852179450681	1	violation	violation	6	A	7	scene	indoor	1	0.4820554439211264
577.4851634430232	1	violation	violation	1	Y	7	face	male	1	0.4541012539993972
580.4851326530334	1	restudy	violation	6	B	2	scene	indoor	1	0.6831375659676269
583.4850882419851	1	restudy	violation	6	B	8	scene	outdoor	1	0.5241896200459449
586.4850433240645	1	restudy	violation	6	B	7	scene	outdoor	1	0.4682328290073201
