onset	duration	trial_type	subcategory	response_accuracy	response_time
13.500548702897504	0.5	scene	indoor	n/a	n/a
15.000539134955034	0.5	scene	indoor	1	0.6032761000096798
16.500509749981575	0.5	scene	indoor	1	0.4893124619266018
18.000487046898343	0.5	scene	indoor	1	0.6673377970000729
19.500474230968393	0.5	scene	outdoor	1	0.8583593069342896
21.000444479985163	0.5	scene	outdoor	1	0.5673779939534143
22.500430578948	0.5	scene	outdoor	1	0.5773929019924253
24.000404584920034	0.5	scene	outdoor	0	0.5553469290025532
25.50039234489668	0.5	scene	outdoor	1	0.6634327589999884
27.00037013599649	0.5	scene	indoor	1	0.8064561319770291
43.500152419903316	0.5	scene	indoor	1	0.756606578011997
45.00480750994757	0.5	scene	outdoor	1	0.6420204320456833
46.50013225397561	0.5	scene	outdoor	1	0.7407009029993787
48.00010004197247	0.5	scene	indoor	1	0.6627090339316055
49.50007609592285	0.5	scene	outdoor	1	0.7197563829831779
51.000060349935666	0.5	scene	indoor	1	0.6957675169687718
52.50006141595077	0.5	scene	indoor	1	0.6437676269561052
54.00003844499588	0.5	scene	outdoor	1	0.5847122370032594
55.49999932292849	0.5	scene	outdoor	1	0.6088307700119913
56.99999430694152	0.5	scene	indoor	1	0.6728370300261304
73.49979708192404	0.5	scene	indoor	1	0.7100416220491752
75.00271017698105	0.5	scene	outdoor	1	0.6481198839610443
76.49975287099369	0.5	scene	outdoor	1	0.7430493609281257
77.999706365983	0.5	scene	indoor	1	0.7451252599712461
79.49968462297693	0.5	scene	indoor	1	0.6021294329548255
80.99966190499254	0.5	scene	indoor	1	0.6341758299386129
82.49964960489888	0.5	scene	outdoor	1	0.5701926799956709
83.9996246258961	0.5	scene	outdoor	1	0.5481627701083198
85.4995993389748	0.5	scene	outdoor	1	0.8662363039329648
86.99958543293178	0.5	scene	indoor	1	0.6612461680779234
103.49937427893747	0.5	face	female	1	0.688459406956099
105.00157762598246	0.5	face	male	1	0.5022549559362233
106.49932017491665	0.5	face	female	1	0.5205171899870038
107.99930929893162	0.5	face	female	1	0.4775263899937272
109.49928791390266	0.5	face	male	1	0.6135472930036485
110.99927926098462	0.5	face	male	1	0.4975547589128837
112.49924771289807	0.5	face	female	1	0.5445922230137512
113.99922453891486	0.5	face	male	1	0.6336160700302571
115.49920635996386	0.5	face	male	1	0.6406295159831643
116.99919887399301	0.5	face	female	1	0.597639805986546
133.4989802018972	0.5	face	female	1	0.7128605770412832
134.9994609769201	0.5	face	male	1	0.579376862035133
136.49892841198016	0.5	face	male	1	0.623829805990681
137.9989215779351	0.5	face	female	1	0.5089194340398535
139.49889942398295	0.5	face	male	1	0.5159378839889541
140.99887078092434	0.5	face	female	1	0.44996608106885105
142.4988525758963	0.5	face	female	1	0.4919052650220692
143.99882529093884	0.5	face	male	1	0.526020711986348
145.4988086959347	0.5	face	female	1	0.5890456950291991
146.99878834397532	0.5	face	male	1	0.5659779449924827
163.49857638496906	0.5	object	manmade	1	0.8352641860255972
164.99854849593248	0.5	object	manmade	1	0.5252958600176498
166.49892998090945	0.5	object	natural	1	0.5229113610694185
167.9985141279176	0.5	object	natural	1	0.4772584360325709
169.49848909594584	0.5	object	natural	1	0.6873269460629672
170.99846410995815	0.5	object	manmade	1	0.598302733968012
172.4984481409192	0.5	object	natural	1	0.5714018880389631
173.99842399393674	0.5	object	natural	1	0.6294213460059837
175.49840867193416	0.5	object	manmade	n/a	n/a
176.99838361795992	0.5	object	manmade	1	0.5993822149466723
193.4981680449564	0.5	object	natural	1	0.5435932360123843
194.99815314100124	0.5	object	manmade	1	0.5596916798967868
196.49813885695767	0.5	object	manmade	1	0.5577107419958338
197.9981171679683	0.5	object	manmade	1	0.645656305947341
199.4980976479128	0.5	object	natural	1	0.5137307900004089
200.99806715990417	0.5	object	manmade	1	0.5557473840890452
202.498046564986	0.5	object	natural	1	0.7137220109580085
203.99802814191207	0.5	object	manmade	1	0.563818363007158
205.4980116969673	0.5	object	natural	1	0.49883871292695403
206.9979814729886	0.5	object	natural	1	0.48986863694153726
223.49776878696866	0.5	face	female	1	0.6250788930337876
224.99774636200164	0.5	face	male	1	0.5281059559201822
226.4977359449258	0.5	face	male	1	0.5931148260133341
227.99771386093926	0.5	face	male	1	0.5491315809777007
229.49768840591423	0.5	face	female	1	0.6321586520643905
230.9976757799741	0.5	face	female	1	0.5841365889646113
232.49765638494864	0.5	face	female	1	0.547200427041389
233.99762540892698	0.5	face	male	1	0.5502275560284033
235.4976068380056	0.5	face	female	1	0.5412192849908024
236.99758861598093	0.5	face	male	1	0.5282617759658024
253.4973622119287	0.5	object	natural	1	0.6034927690634504
254.99736865900923	0.5	object	manmade	1	0.5974805249134079
256.49732990493067	0.5	object	manmade	1	0.6485172300599515
257.9973097209586	0.5	object	natural	1	0.5595472860150039
259.4972934309626	0.5	object	natural	1	0.5495633439859375
260.99726745998487	0.5	object	manmade	1	0.49259196501225233
262.49724940094166	0.5	object	manmade	1	0.5596229019574821
263.99723293597344	0.5	object	manmade	1	0.571536161005497
265.49720521690324	0.5	object	natural	1	0.5526478970423341
266.99718719592784	0.5	object	natural	1	0.6166450959863141
283.4969741218956	0.5	scene	outdoor	1	0.8608833370963112
284.99694434390403	0.5	scene	outdoor	1	0.6649167489958927
286.49693434196524	0.5	scene	outdoor	1	0.7349301399663091
287.996905307984	0.5	scene	outdoor	1	0.8719548219814897
289.49689584295265	0.5	scene	outdoor	n/a	n/a
290.99686068389565	0.5	scene	indoor	1	0.598999566049315
292.49684532592073	0.5	scene	indoor	1	0.49200949806254357
293.99682652496267	0.5	scene	indoor	1	0.7410282249329612
295.49681525095366	0.5	scene	indoor	1	0.5929770430084318
296.996782937902	0.5	scene	indoor	1	0.5760771851055324
313.49656083690934	0.5	object	natural	1	0.5432995830196887
314.99655636399984	0.5	object	natural	1	0.4712805689778179
316.49654499196913	0.5	object	natural	1	0.5173132219351828
317.99650561995804	0.5	object	manmade	1	0.5603615930303931
319.496489637997	0.5	object	natural	1	0.583303180988878
320.9964618399972	0.5	object	manmade	0	0.5884088849416003
322.49644105893094	0.5	object	natural	n/a	n/a
323.9964221599512	0.5	object	manmade	1	0.6154362730449066
325.49640780489426	0.5	object	manmade	1	0.6874550241045654
326.9963831369532	0.5	object	manmade	1	0.7264834069646895
343.496162403957	0.5	face	male	1	0.5897086570039392
344.996138863964	0.5	face	male	1	0.39964267692994326
346.49612342892215	0.5	face	female	1	0.48174297204241157
347.99610012595076	0.5	face	male	1	0.5737666069762781
349.49608992389403	0.5	face	female	1	0.5607645330019295
350.9960700479569	0.5	face	female	1	0.5387234180234373
352.49604259291664	0.5	face	female	1	0.5168247730471194
353.9960185789969	0.5	face	female	1	0.6008438249118626
355.496011234005	0.5	face	male	1	0.647823776002042
356.99598552891985	0.5	face	male	1	0.585881045088172
373.4957689009607	0.5	face	female	1	0.5780979839619249
374.9957368889591	0.5	face	male	1	0.5950571090215817
376.4957262339303	0.5	face	male	1	0.5631421720609069
377.99570223491173	0.5	face	female	1	0.5421733530238271
379.49568740592804	0.5	face	female	1	0.5530946960207075
380.9789925259538	0.5	face	male	1	0.57788104203064
382.4789751699427	0.5	face	male	1	0.570898742065765
383.9789404029725	0.5	face	female	1	0.7339386119274423
385.4789206829155	0.5	face	male	1	0.5579479780280963
386.9788996729767	0.5	face	female	1	0.5108901049243286
403.4786879969761	0.5	object	manmade	1	0.8331880209734663
404.9786766449688	0.5	object	natural	1	0.5001962350215763
406.4786566059338	0.5	object	natural	1	0.5192200390156358
407.9786259100074	0.5	object	manmade	1	0.5412532599875703
409.47860752791166	0.5	object	natural	1	0.5662719040410593
410.9785848619649	0.5	object	manmade	1	0.88323322404176
412.47856342198793	0.5	object	natural	1	0.5343109759269282
413.9785480919527	0.5	object	manmade	1	0.5993237339425832
415.4785243689548	0.5	object	manmade	1	0.763355216011405
416.9785063819727	0.5	object	natural	1	0.635366527014412
433.47828522790223	0.5	scene	indoor	1	0.6255920510739088
434.9782700740034	0.5	scene	indoor	1	0.4966034279204905
436.47826152597554	0.5	scene	outdoor	1	0.5306154149584472
437.97822474490386	0.5	scene	outdoor	1	0.531651028082706
439.4782049539499	0.5	scene	outdoor	1	0.7866153389913961
440.9781863389071	0.5	scene	outdoor	1	0.5266427859896794
442.47816193592735	0.5	scene	outdoor	1	0.6587165700038895
443.97816015500575	0.5	scene	indoor	1	0.6057129160035402
445.47812664997764	0.5	scene	indoor	1	0.5207543389406055
446.97810364095494	0.5	scene	indoor	1	0.4937735600396991
