onset	duration	trial_type	subcategory	response_accuracy	response_time
13.51349649601616	0.5	face	female	1	0.6133135829586536
15.013474705978297	0.5	face	female	1	0.5113386809825897
16.513447172939777	0.5	face	male	1	0.5853630549972877
18.013423591968603	0.5	face	male	1	0.47539211495313793
19.513413263019174	0.5	face	female	1	0.4973989629652351
21.01339748397004	0.5	face	female	1	0.4584178150398657
22.513366322033107	0.5	face	male	1	0.4984482629224658
24.0133459669305	0.5	face	male	1	0.4534602970816195
25.51332527701743	0.5	face	male	1	0.4294947369489819
27.013327838969417	0.5	face	female	1	0.46848861197941005
43.513084804988466	0.5	face	female	1	0.6437327399617061
45.01306419703178	0.5	face	male	1	0.5017564799636602
46.513049511937425	0.5	face	male	1	0.5486991790821776
48.01301955000963	0.5	face	female	1	0.5078003369271755
49.51300712802913	0.5	face	female	1	0.503804838983342
51.01299223199021	0.5	face	female	1	0.5157464429503307
52.51297964900732	0.5	face	male	1	0.5568404269870371
54.01294965692796	0.5	face	male	1	0.5068747070617974
55.51293737499509	0.5	face	male	1	0.5678795960266143
57.012905649025925	0.5	face	female	1	0.5648498910013586
73.51268556492869	0.5	object	natural	1	0.762083872104995
75.01266200293321	0.5	object	manmade	1	0.5501595470122993
76.51264586101752	0.5	object	natural	1	0.6161732189357281
78.01262528297957	0.5	object	manmade	1	0.5461359650362283
79.51261506299488	0.5	object	natural	1	0.6142060559941456
81.01258575893007	0.5	object	natural	1	0.5802349610021338
82.51256957394071	0.5	object	manmade	1	0.692244503996335
84.0125435750233	0.5	object	manmade	1	0.5362790359649807
85.51252533099614	0.5	object	natural	1	0.5272234909934923
87.01250277494546	0.5	object	manmade	1	0.5083128550322726
103.49560505896807	0.5	scene	indoor	1	0.5922181450296193
105.01227362197824	0.5	scene	outdoor	1	0.5585387969622388
106.49556801992003	0.5	scene	outdoor	1	0.48325496003963053
107.9955476539908	0.5	scene	indoor	1	0.5672647979808971
109.49552280001808	0.5	scene	outdoor	1	0.5132179979700595
110.99550945102237	0.5	scene	indoor	1	0.5893161409767345
112.51216221100185	0.5	scene	outdoor	1	0.4966648690169677
113.99547295202501	0.5	scene	indoor	1	0.5003544219071046
115.49545168795157	0.5	scene	indoor	1	0.5023714930284768
116.9954382169526	0.5	scene	outdoor	1	0.5083871299866587
133.49521077796817	0.5	face	male	1	0.5746174129890278
134.995190999005	0.5	face	female	1	0.4896400310099125
136.49518089997582	0.5	face	male	1	0.5446447549620643
137.99514996097423	0.5	face	female	1	0.5486804130487144
139.49512994498946	0.5	face	male	1	0.6406998729798943
140.9951094490243	0.5	face	female	1	0.5017159630078822
142.4950920919655	0.5	face	female	1	0.5027418730314821
143.9950728249969	0.5	face	male	1	0.5527579089393839
145.4950495379744	0.5	face	male	1	0.46274379605893046
146.99502948892768	0.5	face	female	1	0.4978148899972439
163.49480859492905	0.5	object	manmade	1	0.7210027190158144
164.99478617496789	0.5	object	manmade	1	0.6200507440371439
166.49477293598466	0.5	object	natural	1	0.5580608689924702
167.99474702996667	0.5	object	natural	1	0.5130807399982587
169.494724365999	0.5	object	natural	1	0.5801286009373143
170.99471485393587	0.5	object	natural	1	0.6721219760365784
172.49468679202255	0.5	object	natural	1	0.5841486209537834
173.99466316401958	0.5	object	manmade	1	0.6011670879088342
175.4946472729789	0.5	object	manmade	1	0.5441851289942861
176.99462798296008	0.5	object	manmade	1	0.5562067220453173
193.49440547300037	0.5	scene	outdoor	1	0.6604296630248427
194.99438662198372	0.5	scene	outdoor	1	0.5844525459688157
196.49911104200874	0.5	scene	outdoor	1	0.6517216400243342
197.99434312793892	0.5	scene	indoor	1	0.5064997900044546
199.49432958802208	0.5	scene	outdoor	1	0.49842580896802247
200.9943024829263	0.5	scene	indoor	1	0.5825550500303507
202.4942836399423	0.5	scene	outdoor	1	0.5234690840588883
203.99426667101216	0.5	scene	indoor	1	0.5875723689096048
205.49425936094485	0.5	scene	indoor	1	0.5814903390128165
206.994225825998	0.5	scene	indoor	1	0.5596104129217565
223.49400235398207	0.5	face	female	1	0.5398413329385221
224.99399133201223	0.5	face	male	1	0.5388496579835191
226.49824880994856	0.5	face	female	1	0.5825924130622298
227.9939555899473	0.5	face	male	1	0.5388886510627344
229.4939256659709	0.5	face	male	1	0.5338760210433975
230.993900746922	0.5	face	male	1	0.6439400500385091
232.49389028700534	0.5	face	male	1	0.5699497279711068
233.99386364396196	0.5	face	female	1	0.4789774740347639
235.49384144996293	0.5	face	female	1	0.4690064659807831
236.99382556800265	0.5	face	female	1	0.45701699901837856
253.49359851994086	0.5	object	natural	1	0.6031588590703905
254.99358244799078	0.5	object	manmade	1	0.8892631470225751
256.49639644892886	0.5	object	natural	1	0.5824436760740355
257.9935427409364	0.5	object	natural	1	0.4822438530391082
259.4935164080234	0.5	object	manmade	1	0.5202494219411165
260.9935017899843	0.5	object	manmade	1	0.5363403749652207
262.493481307989	0.5	object	natural	1	0.5133594590006396
263.9934682539897	0.5	object	manmade	1	0.6093490029452369
265.49344608699903	0.5	object	natural	1	0.6304016719805077
266.99341860902496	0.5	object	manmade	1	0.6054243359249085
283.49320365593303	0.5	object	manmade	1	0.669647874077782
284.9931757990271	0.5	object	manmade	1	0.6756685529835522
286.4955823000055	0.5	object	manmade	1	0.5682657429715618
287.99315134296194	0.5	object	natural	1	0.778701500967145
289.49312548700254	0.5	object	natural	1	0.6287179859355092
290.9930967260152	0.5	object	manmade	1	0.5717424099566415
292.49307104502805	0.5	object	natural	1	0.546772803994827
293.99306556000374	0.5	object	natural	1	0.5997179739642888
295.4930372949457	0.5	object	manmade	1	0.623807245050557
296.99302214593627	0.5	object	natural	1	0.8187736640684307
313.4927935960004	0.5	face	male	1	0.6750556590268388
314.9927706220187	0.5	face	female	1	0.4170534829609096
316.49373486603145	0.5	face	male	1	0.5371149859856814
317.9927453059936	0.5	face	female	1	0.5450251910369843
319.49272093898617	0.5	face	female	1	0.5950575979659334
320.9926950549707	0.5	face	male	1	0.9091542919632047
322.4926743620308	0.5	face	female	1	0.579182913992554
323.9926513979444	0.5	face	female	1	0.6531765190884471
325.4926461810246	0.5	face	male	1	0.6392068970017135
326.9926134599373	0.5	face	male	1	0.7552423770539463
343.4923887869809	0.5	scene	outdoor	1	0.796462917001918
344.9923716079211	0.5	scene	indoor	1	0.5694790710695088
346.4923490899382	0.5	scene	indoor	1	0.9235112729948014
347.9923394569196	0.5	scene	outdoor	1	0.6275147390551865
349.4923155460274	0.5	scene	indoor	1	0.6795379669638351
350.992288724985	0.5	scene	outdoor	1	0.5236125939991325
352.4922713920241	0.5	scene	outdoor	1	0.5195821179077029
353.9922482300317	0.5	scene	indoor	1	0.5346059069270268
355.492228226969	0.5	scene	indoor	1	0.6946077919565141
356.9922168320045	0.5	scene	outdoor	1	0.6126429549185559
373.49198254197836	0.5	scene	outdoor	1	0.60787695099134
374.9919648360228	0.5	scene	outdoor	1	0.6978980179410428
376.4919498269446	0.5	scene	outdoor	1	0.6519074520329013
377.99192649300676	0.5	scene	outdoor	1	0.5889336159452796
379.4919063160196	0.5	scene	indoor	1	0.5779587309807539
380.9918847179506	0.5	scene	outdoor	1	0.5659063219791278
382.4918757919222	0.5	scene	indoor	1	0.635016972082667
383.99186266202014	0.5	scene	indoor	1	0.6179486690089107
385.491836042027	0.5	scene	indoor	n/a	n/a
386.9918053429574	0.5	scene	indoor	1	0.7500558950705454
403.4915822619805	0.5	object	manmade	1	0.615281117032282
404.99156191700604	0.5	object	manmade	1	0.6243048389442265
406.4915477479808	0.5	object	natural	1	0.7283134689787403
407.9915284080198	0.5	object	natural	1	0.4763354759197682
409.4915016419254	0.5	object	manmade	1	0.6623832290060818
410.9914814849617	0.5	object	manmade	1	0.5783805990358815
412.49146209994797	0.5	object	natural	1	0.6033993690507486
413.9914435449755	0.5	object	manmade	1	0.5434157280251384
415.4914323979756	0.5	object	natural	1	0.48543160199187696
416.99139824393205	0.5	object	natural	1	0.49546476104296744
433.49117837799713	0.5	scene	outdoor	1	0.6996896079508588
434.9911619130289	0.5	scene	indoor	1	0.6067115319892764
436.49115113692824	0.5	scene	indoor	1	0.6567092631012201
437.99111920094583	0.5	scene	indoor	1	0.47074308199808
439.4910996829858	0.5	scene	outdoor	1	0.697762364987284
440.99107693193946	0.5	scene	outdoor	1	0.6207974189892411
442.4910634669941	0.5	scene	indoor	1	0.6187258090358227
443.9910427009454	0.5	scene	outdoor	1	0.5678298050770536
445.49102874996606	0.5	scene	indoor	1	0.6527685660403222
446.9909985800041	0.5	scene	outdoor	1	0.5728741110069677
