onset	duration	trial_type	condition	repetition	pairmate	pairID	category	subcategory	response_accuracy	response_time
13.504263340029864	1	prelearning	violation	1	A	29	scene	indoor	1	0.640340692945756
16.50422644999344	1	prelearning	violation	1	B	31	scene	outdoor	1	0.5723843330051751
19.504186192993075	1	prelearning	nonviolation	1	A	76	scene	outdoor	1	0.5144171320134774
22.50413209805265	1	prelearning	violation	1	A	25	scene	indoor	1	0.46046627697069203
25.50409545598086	1	prelearning	nonviolation	1	B	79	scene	indoor	1	0.4565080410102382
28.50405724707525	1	prelearning	nonviolation	1	B	77	scene	indoor	1	0.5945477219065651
31.50401347700972	1	prelearning	nonviolation	1	A	80	scene	outdoor	1	0.4895888370228931
34.50397636205889	1	prelearning	nonviolation	1	B	74	scene	outdoor	0	0.5236259360099211
37.503935834974975	1	prelearning	violation	1	A	27	scene	indoor	1	0.5846734190126881
40.50389521499165	1	prelearning	violation	1	B	32	scene	indoor	1	0.4846978320274502
43.5038575080689	1	prelearning	nonviolation	1	B	80	scene	outdoor	1	0.6457413509488106
46.50381481403019	1	prelearning	violation	1	B	26	scene	outdoor	0	0.6507884749444202
49.503784334054224	1	prelearning	violation	1	A	28	scene	outdoor	1	0.4728229489410296
52.50373798806687	1	prelearning	nonviolation	1	A	73	scene	indoor	1	0.4527824439574033
55.50369751697872	1	prelearning	nonviolation	1	B	76	scene	outdoor	1	0.4928325740620494
58.50365365901961	1	prelearning	nonviolation	1	B	75	scene	indoor	1	0.477946892962791
61.50361895398236	1	prelearning	violation	1	B	28	scene	indoor	1	0.5299884710693732
64.50357364607044	1	prelearning	violation	1	B	27	scene	outdoor	1	0.4770285309059546
67.50353457499295	1	prelearning	violation	1	B	30	scene	indoor	1	0.5510750800604001
70.50349438900594	1	prelearning	nonviolation	1	A	74	scene	indoor	1	0.5160872889682651
73.50345223606564	1	prelearning	nonviolation	1	A	78	scene	indoor	1	0.5201780719216913
76.5034141279757	1	prelearning	violation	1	A	31	scene	outdoor	1	0.4911894100951031
79.50337363604922	1	prelearning	violation	1	A	26	scene	outdoor	1	0.492232903954573
82.50333506602328	1	prelearning	nonviolation	1	A	77	scene	outdoor	1	0.4272745209746063
85.50329338700976	1	prelearning	nonviolation	1	A	75	scene	outdoor	1	0.450312978005968
88.50325152406003	1	prelearning	nonviolation	1	A	79	scene	indoor	1	0.6103597809560597
91.5032131850021	1	prelearning	violation	1	B	25	scene	outdoor	1	0.6103963049827144
94.50316978199407	1	prelearning	violation	1	B	29	scene	indoor	1	0.4913545330055058
97.5031323400326	1	prelearning	nonviolation	1	B	78	scene	outdoor	1	0.4874764150008559
100.50308670208322	1	prelearning	nonviolation	1	B	73	scene	indoor	1	0.5185328669613227
103.50304638408123	1	prelearning	violation	1	A	32	scene	outdoor	1	0.6225347489817068
106.50300829100887	1	prelearning	violation	1	A	30	scene	indoor	1	0.4166014000074938
109.50296902202535	1	learning	nonviolation	2	A	73	scene	indoor	1	0.4776289470028132
112.5029274179833	1	learning	nonviolation	2	B	73	scene	indoor	1	0.4676816920982674
115.50289506907578	1	learning	nonviolation	2	A	74	scene	indoor	1	0.7057164639700204
118.50284787605051	1	learning	nonviolation	2	B	74	scene	outdoor	1	0.4407597369281575
121.50280571507757	1	learning	violation	2	A	25	scene	indoor	1	0.4608081439509988
124.5027710350696	1	learning	violation	2	B	25	scene	outdoor	1	0.4628336819587275
127.50272808503358	1	learning	violation	2	A	26	scene	outdoor	1	0.4978911479702219
130.50269209197722	1	learning	violation	2	B	26	scene	outdoor	1	0.4789162200177088
133.50264424702618	1	learning	nonviolation	2	A	75	scene	outdoor	1	0.4859754539793357
136.50260359002277	1	learning	nonviolation	2	B	75	scene	indoor	1	0.4940120310056954
139.50256558205	1	learning	nonviolation	3	A	74	scene	indoor	1	0.4960467739729211
142.50252011301927	1	learning	nonviolation	3	B	74	scene	outdoor	1	0.4320966190425679
145.50248285208363	1	learning	nonviolation	2	A	76	scene	outdoor	1	0.5021322389366105
148.50244349997956	1	learning	nonviolation	2	B	76	scene	outdoor	1	0.4271739160176367
151.50240184308495	1	learning	violation	3	A	25	scene	indoor	1	0.4982197459321469
154.50235914404038	1	learning	violation	3	B	25	scene	outdoor	1	0.4872572779422626
157.50231895805337	1	learning	nonviolation	2	A	77	scene	outdoor	1	0.4563041189685464
160.50227978697512	1	learning	nonviolation	2	B	77	scene	indoor	1	0.5383416770491749
163.50223680399358	1	learning	violation	2	A	27	scene	indoor	1	0.5113827950553969
166.5021957029821	1	learning	violation	2	B	27	scene	outdoor	1	0.7114219340728596
169.5021566330688	1	learning	nonviolation	3	A	73	scene	indoor	1	0.4864652509568259
172.50212461699263	1	learning	nonviolation	3	B	73	scene	indoor	1	0.6774950010003522
175.50207656901333	1	learning	nonviolation	3	A	75	scene	outdoor	1	0.5475381209980696
178.50203333608806	1	learning	nonviolation	3	B	75	scene	indoor	1	0.45658342493698
181.50198943307626	1	learning	violation	2	A	28	scene	outdoor	1	0.5216308929957449
184.5019602000248	1	learning	violation	2	B	28	scene	indoor	1	0.6405765450326726
187.5019099840429	1	learning	nonviolation	4	A	74	scene	indoor	1	0.5037135389866307
190.5018700930523	1	learning	nonviolation	4	B	74	scene	outdoor	1	0.5057520959526299
193.50183760898656	1	learning	violation	2	A	29	scene	indoor	1	0.4947868280578405
196.50179446104445	1	learning	violation	2	B	29	scene	indoor	1	0.4878321909345686
199.50174468406482	1	learning	nonviolation	4	A	75	scene	outdoor	1	0.5418795769801363
202.501704407041	1	learning	nonviolation	4	B	75	scene	indoor	1	0.4289436240214855
205.50166334200185	1	learning	nonviolation	3	A	77	scene	outdoor	1	0.4799697520211339
208.50162608304527	1	learning	nonviolation	3	B	77	scene	indoor	1	0.4399929690407589
211.50158245407508	1	learning	nonviolation	3	A	76	scene	outdoor	1	0.4310412759659812
214.50154011999257	1	learning	nonviolation	3	B	76	scene	outdoor	0	0.3850866660941392
217.5015012120129	1	learning	nonviolation	4	A	73	scene	indoor	1	0.5061212760629132
220.50146153999958	1	learning	nonviolation	4	B	73	scene	indoor	1	0.450161082088016
223.50143068307082	1	learning	violation	2	A	30	scene	indoor	1	0.4851989629678428
226.5013877920574	1	learning	violation	2	B	30	scene	indoor	1	0.5332387579837814
229.50133690505757	1	learning	violation	3	A	27	scene	indoor	1	0.4853204649407417
232.50129458901938	1	learning	violation	3	B	27	scene	outdoor	1	0.5513320809695871
235.5012548260856	1	restudy	nonviolation	5	B	75	scene	indoor	1	0.5003776809899136
238.50121215707625	1	restudy	nonviolation	5	B	73	scene	indoor	1	0.5004158728988841
241.5011732510757	1	learning	violation	3	A	30	scene	indoor	1	0.7334567119833082
244.50113097007846	1	learning	violation	3	B	30	scene	indoor	1	0.4514927449636161
247.50109073205383	1	learning	violation	3	A	26	scene	outdoor	1	0.471521753934212
250.5010492600268	1	learning	violation	3	B	26	scene	outdoor	1	0.4465806969674304
253.50100602407474	1	learning	violation	3	A	28	scene	outdoor	1	0.4116237940033898
256.5009668980492	1	learning	violation	3	B	28	scene	indoor	1	0.4626623439835385
259.50092577503534	1	learning	violation	4	A	25	scene	indoor	1	0.57164732797537
262.50088744598906	1	learning	violation	4	B	25	scene	outdoor	1	0.5207427990389988
265.50084401201457	1	learning	violation	3	A	29	scene	indoor	1	0.5158025560667738
268.5008091770578	1	learning	violation	3	B	29	scene	indoor	1	0.5488241399871185
271.5007614600472	1	learning	violation	4	A	28	scene	outdoor	1	0.5058723649708554
274.5007195370272	1	learning	violation	4	B	28	scene	indoor	1	0.4879118039971218
277.50067831599154	1	restudy	nonviolation	5	B	74	scene	outdoor	0	0.5459536210400984
280.5006399269914	1	restudy	nonviolation	6	B	75	scene	indoor	1	0.4829930120613426
283.5006003860617	1	learning	violation	4	A	27	scene	indoor	1	0.4900357269216329
286.50055568804964	1	learning	violation	4	B	27	scene	outdoor	1	0.5590751509880647
289.50052363297436	1	violation	violation	5	A	25	scene	indoor	1	0.4681075840489939
292.5004724870669	1	violation	violation	1	X	25	face	male	1	0.44816154101863503
295.50043942907365	1	learning	violation	4	A	29	scene	indoor	1	0.4541963129304349
298.500395932002	1	learning	violation	4	B	29	scene	indoor	1	0.5672396590234712
301.50034698704263	1	restudy	nonviolation	6	B	74	scene	outdoor	1	0.5772903739707544
304.50030984904146	1	learning	nonviolation	4	A	76	scene	outdoor	1	0.4993265509838238
307.5002679490717	1	learning	nonviolation	4	B	76	scene	outdoor	1	0.485387036926113
310.50023034901824	1	learning	nonviolation	4	A	77	scene	outdoor	1	0.4794045949820429
313.5001856490271	1	learning	nonviolation	4	B	77	scene	indoor	1	0.4844540980411694
316.4834669660777	1	violation	violation	5	A	28	scene	outdoor	1	0.5111727769253775
319.4834288690472	1	violation	violation	1	X	28	face	female	1	0.5062072540167719
322.48339815204963	1	restudy	nonviolation	6	B	73	scene	indoor	1	0.4762383319903165
325.48334018699825	1	violation	violation	5	A	27	scene	indoor	1	0.5063046209979802
328.48330508207437	1	violation	violation	1	X	27	face	male	1	0.7183368270052597
331.4999426470604	1	violation	violation	5	A	29	scene	indoor	1	0.5496991169638932
334.49990127806086	1	violation	violation	1	X	29	face	female	1	0.4787380149355158
337.4831906360341	1	restudy	nonviolation	5	B	76	scene	outdoor	1	0.4904554439708591
340.48315353307413	1	learning	violation	4	A	30	scene	indoor	1	0.4604863349813968
343.48310408904223	1	learning	violation	4	B	30	scene	indoor	1	0.4805396649753675
346.48306572006555	1	restudy	nonviolation	5	B	77	scene	indoor	1	0.6075738680083305
349.4830242859898	1	learning	violation	4	A	26	scene	outdoor	1	0.4845492150634527
352.4829868320377	1	learning	violation	4	B	26	scene	outdoor	1	0.6006606440059841
355.48294322297437	1	learning	nonviolation	2	A	78	scene	indoor	1	0.5517012400086969
358.48289804405067	1	learning	nonviolation	2	B	78	scene	outdoor	1	0.810744829941541
361.48286132200167	1	restudy	nonviolation	6	B	76	scene	outdoor	1	0.4897896250477061
364.4828177830205	1	learning	nonviolation	2	A	79	scene	indoor	1	0.4338263110257685
367.4827736020088	1	learning	nonviolation	2	B	79	scene	indoor	1	0.5588731269817799
370.4827362810029	1	restudy	violation	5	B	28	scene	indoor	1	0.4929075270192698
373.48269960808096	1	learning	nonviolation	2	A	80	scene	outdoor	1	0.5719534899108112
376.48265319899656	1	learning	nonviolation	2	B	80	scene	outdoor	1	0.5609963900642471
379.48261069797445	1	restudy	violation	5	B	25	scene	outdoor	1	0.5809516580775379
382.48256679507904	1	learning	violation	2	A	31	scene	outdoor	1	0.5260763469850644
385.48252989700995	1	learning	violation	2	B	31	scene	outdoor	1	0.4441126490710303
388.48248536302714	1	restudy	violation	5	B	27	scene	outdoor	1	0.4771580969681963
391.4824381530052	1	learning	violation	2	A	32	scene	outdoor	1	0.548209483968094
394.48241083102766	1	learning	violation	2	B	32	scene	indoor	1	0.5332421460188925
397.4823675220832	1	violation	violation	6	A	28	scene	outdoor	1	0.5342856839997694
400.48232129402464	1	violation	violation	1	Y	28	face	female	1	0.4593231950420886
403.4822835510131	1	learning	violation	3	A	31	scene	outdoor	1	0.4033662909641862
406.4822446340695	1	learning	violation	3	B	31	scene	outdoor	1	0.5444021139992401
409.482202007086	1	learning	nonviolation	3	A	79	scene	indoor	1	0.4984548669308424
412.48215383803466	1	learning	nonviolation	3	B	79	scene	indoor	1	0.4814062770456076
415.4821169660426	1	violation	violation	5	A	30	scene	indoor	1	0.4985340309794992
418.48207610298414	1	violation	violation	1	X	30	face	female	1	0.5395766750443727
421.4820338700665	1	restudy	violation	5	B	29	scene	indoor	1	0.4766127039911226
424.4819936590502	1	learning	violation	3	A	32	scene	outdoor	1	0.5096600989345461
427.48195309902087	1	learning	violation	3	B	32	scene	indoor	1	0.422699284972623
430.4819151540287	1	restudy	violation	5	B	30	scene	indoor	1	0.4677336419699714
433.4818725719815	1	learning	nonviolation	3	A	78	scene	indoor	1	0.7247819720068946
436.48183010099456	1	learning	nonviolation	3	B	78	scene	outdoor	1	0.5898241120157763
439.48178707505576	1	learning	violation	4	A	32	scene	outdoor	1	0.4947998649440706
442.48174908198416	1	learning	violation	4	B	32	scene	indoor	1	0.4859070749953389
445.4817091689911	1	violation	violation	5	A	26	scene	outdoor	1	0.4849310320569202
448.48166361299815	1	violation	violation	1	X	26	face	male	1	0.5389898340217769
451.4816230980214	1	restudy	nonviolation	6	B	77	scene	indoor	1	0.4320335650118068
454.48158500797587	1	violation	violation	5	A	32	scene	outdoor	1	0.49598713906016206
457.48154521000106	1	violation	violation	1	X	32	face	female	1	0.42411101306788623
460.4814980539959	1	learning	nonviolation	4	A	79	scene	indoor	1	0.4951534250285477
463.48146758007346	1	learning	nonviolation	4	B	79	scene	indoor	1	0.4871919678989798
466.4814179460518	1	learning	nonviolation	3	A	80	scene	outdoor	1	0.515238280990161
469.48137553699786	1	learning	nonviolation	3	B	80	scene	outdoor	1	0.3852822260232642
472.4813362080604	1	violation	violation	6	A	27	scene	indoor	1	0.3753191179130225
475.4813035610132	1	violation	violation	1	Y	27	face	male	1	0.4843420190736651
478.4812617590651	1	violation	violation	6	A	25	scene	indoor	1	0.4603956799255684
481.4812092870706	1	violation	violation	1	Y	25	face	male	1	0.5084470729343593
484.48117034905584	1	learning	nonviolation	4	A	80	scene	outdoor	0	0.3604883039370179
487.481141795055	1	learning	nonviolation	4	B	80	scene	outdoor	1	0.4955154770286754
490.48108783701895	1	restudy	violation	5	B	26	scene	outdoor	1	0.4465698190033436
493.4810489770025	1	restudy	violation	6	B	28	scene	indoor	1	0.4795297220116481
496.4810059160227	1	restudy	violation	5	B	32	scene	indoor	1	0.4136572959832847
499.4809671919793	1	learning	violation	4	A	31	scene	outdoor	1	0.4986978700617328
502.4809229540406	1	learning	violation	4	B	31	scene	outdoor	1	0.4157344290288165
505.48088175000163	1	learning	nonviolation	4	A	78	scene	indoor	1	0.44477944006212056
508.4808410550468	1	learning	nonviolation	4	B	78	scene	outdoor	1	0.4818048099987209
511.4807979720645	1	violation	violation	6	A	29	scene	indoor	1	0.36886630090884864
514.4807600720087	1	violation	violation	1	Y	29	face	female	0	0.4999036120716482
517.4807173970621	1	violation	violation	5	A	31	scene	outdoor	1	0.5659563819644973
520.4806824420813	1	violation	violation	1	X	31	face	male	1	0.4979830289958045
523.4806348100537	1	restudy	nonviolation	5	B	79	scene	indoor	1	0.3630249740090221
526.480593774002	1	violation	violation	6	A	32	scene	outdoor	1	0.5560741809895262
529.4805589440512	1	violation	violation	1	Y	32	face	female	1	0.4911108639789745
532.4805110970046	1	violation	violation	6	A	30	scene	indoor	1	0.5661565550835803
535.4804689880693	1	violation	violation	1	Y	30	face	female	1	0.5631966039072722
538.4804277650546	1	restudy	violation	5	B	31	scene	outdoor	1	0.4922370630083606
541.480391188059	1	restudy	violation	6	B	25	scene	outdoor	1	0.4602799009298906
544.4803474210203	1	restudy	nonviolation	5	B	78	scene	outdoor	1	0.4413196180248633
547.4803062420107	1	restudy	violation	6	B	27	scene	outdoor	1	0.5333643159829079
550.4802644120064	1	violation	violation	6	A	31	scene	outdoor	1	0.4544092010473833
553.4802302360766	1	violation	violation	1	Y	31	face	male	1	0.4794256628956646
556.4802305280464	1	restudy	nonviolation	5	B	80	scene	outdoor	1	0.4734310919884592
559.4801424309843	1	violation	violation	6	A	26	scene	outdoor	1	0.4265229509910569
562.4801028569927	1	violation	violation	1	Y	26	face	male	1	0.3884891760535538
565.4800572900567	1	restudy	violation	6	B	32	scene	indoor	1	0.4636113570304588
568.4800178030273	1	restudy	nonviolation	6	B	78	scene	outdoor	1	0.5836551300017163
571.4799770930549	1	restudy	violation	6	B	31	scene	outdoor	1	0.5006991819245741
574.4799314710543	1	restudy	violation	6	B	29	scene	indoor	1	0.5197416329756379
577.4798979070038	1	restudy	nonviolation	6	B	80	scene	outdoor	1	0.4287749020149931
580.4798519139878	1	restudy	violation	6	B	26	scene	outdoor	1	0.5667313770391047
583.4798060670728	1	restudy	violation	6	B	30	scene	indoor	1	0.5648706349311396
586.479767492041	1	restudy	nonviolation	6	B	79	scene	indoor	1	0.5289093259489164
