onset	duration	trial_type	condition	repetition	pairmate	pairID	category	subcategory	response_accuracy	response_time
13.498830149997953	1	prelearning	violation	1	A	23	scene	indoor	1	0.8793765059672296
16.498788263997994	1	prelearning	nonviolation	1	B	66	scene	indoor	1	0.5084174189250916
19.49875444895588	1	prelearning	nonviolation	1	A	71	scene	outdoor	1	0.7464568059658632
22.498717390932146	1	prelearning	violation	1	B	18	scene	indoor	1	0.6495296870125458
25.515372231951915	1	prelearning	violation	1	B	19	scene	indoor	1	0.4928320510080084
28.498644321924075	1	prelearning	nonviolation	1	A	69	scene	outdoor	1	0.5585640060016885
31.49860698799603	1	prelearning	violation	1	B	22	scene	indoor	1	0.93960269598756
34.49856547999661	1	prelearning	violation	1	B	17	scene	outdoor	1	0.4876456799684093
37.49851407296956	1	prelearning	violation	1	B	20	scene	outdoor	1	0.9116934780031444
40.49848472594749	1	prelearning	nonviolation	1	A	68	scene	indoor	1	0.5287233289564028
43.49843986891211	1	prelearning	violation	1	A	22	scene	indoor	1	0.6437720010289922
46.498405048972934	1	prelearning	nonviolation	1	B	65	scene	indoor	1	0.5458091449690983
49.49836351990234	1	prelearning	nonviolation	1	A	67	scene	indoor	1	0.8278478960273787
52.498347355984144	1	prelearning	nonviolation	1	B	71	scene	outdoor	1	0.6518614999949932
55.49828441091813	1	prelearning	violation	1	B	21	scene	outdoor	1	0.49885211908258503
58.49826093390584	1	prelearning	violation	1	A	18	scene	outdoor	1	0.6699461040552706
61.49821076600347	1	prelearning	nonviolation	1	A	72	scene	outdoor	1	0.4840103049064055
64.49816534190904	1	prelearning	violation	1	A	24	scene	outdoor	1	0.5020420870278031
67.49812397791538	1	prelearning	nonviolation	1	A	65	scene	indoor	1	0.5931030190549791
70.49808072589802	1	prelearning	nonviolation	1	A	70	scene	indoor	1	0.4751384810078889
73.49804894695991	1	prelearning	violation	1	B	24	scene	outdoor	1	0.5981657629599795
76.49801336799283	1	prelearning	violation	1	A	17	scene	outdoor	1	0.5812008609063923
79.49798293597996	1	prelearning	nonviolation	1	B	68	scene	indoor	0	0.632235114928335
82.4979324869346	1	prelearning	violation	1	A	20	scene	indoor	1	0.5642894270131364
85.49788948195055	1	prelearning	violation	1	A	21	scene	indoor	1	0.4183281409787014
88.4978587749647	1	prelearning	nonviolation	1	B	69	scene	indoor	1	0.4513396440306678
91.4978057059925	1	prelearning	nonviolation	1	B	70	scene	outdoor	0	0.6324104079976678
94.49777161295059	1	prelearning	nonviolation	1	A	66	scene	outdoor	1	0.9234492309624328
97.4977277459111	1	prelearning	violation	1	A	19	scene	outdoor	1	0.5784890510840341
100.49769479490351	1	prelearning	nonviolation	1	B	67	scene	outdoor	1	0.4385291250655428
103.49765987799036	1	prelearning	nonviolation	1	B	72	scene	outdoor	1	0.4715241399826482
106.4976138419006	1	prelearning	violation	1	B	23	scene	indoor	1	0.7515441750874743
109.4975802348927	1	learning	violation	2	A	17	scene	outdoor	1	0.7286446500802413
112.49753878894262	1	learning	violation	2	B	17	scene	outdoor	1	0.5406855220207945
115.49750316189602	1	learning	nonviolation	2	A	65	scene	indoor	1	0.5797237590886652
118.4974511209875	1	learning	nonviolation	2	B	65	scene	indoor	1	0.5487689899746329
121.49741609289777	1	learning	nonviolation	2	A	66	scene	outdoor	1	0.5808067120378837
124.49737740599085	1	learning	nonviolation	2	B	66	scene	indoor	0	0.6298407670110464
127.4973428719677	1	learning	violation	2	A	18	scene	outdoor	1	0.6318237229716033
130.49729122989808	1	learning	violation	2	B	18	scene	indoor	1	0.5209301670547575
133.49725659796968	1	learning	nonviolation	2	A	67	scene	indoor	1	0.5359627039870247
136.49721909291108	1	learning	nonviolation	2	B	67	scene	outdoor	1	0.6039528310066089
139.49717896489892	1	learning	nonviolation	2	A	68	scene	indoor	1	0.5130406800890341
142.49712950096	1	learning	nonviolation	2	B	68	scene	indoor	1	0.4790961400140077
145.49709152593275	1	learning	nonviolation	2	A	69	scene	outdoor	1	0.6030513930600137
148.49704978300727	1	learning	nonviolation	2	B	69	scene	indoor	1	0.7811787599930541
151.49701904598626	1	learning	nonviolation	3	A	66	scene	outdoor	1	0.5422081609722227
154.4969683859963	1	learning	nonviolation	3	B	66	scene	indoor	1	0.4762543949764222
157.49693077197296	1	learning	violation	2	A	19	scene	outdoor	1	0.5502894290257245
160.49688727792818	1	learning	violation	2	B	19	scene	indoor	1	0.4682257020613178
163.49685555300675	1	learning	violation	3	A	17	scene	outdoor	1	0.563374999910593
166.49681919196155	1	learning	violation	3	B	17	scene	outdoor	1	0.4424081150209531
169.49676609900783	1	learning	violation	2	A	20	scene	indoor	0	0.4674562439322472
172.49673647398598	1	learning	violation	2	B	20	scene	outdoor	1	0.6434989869594574
175.49669472198002	1	learning	violation	2	A	21	scene	indoor	1	0.4914554440183565
178.496648908942	1	learning	violation	2	B	21	scene	outdoor	1	0.6035732090240344
181.4966047259513	1	learning	violation	2	A	22	scene	indoor	1	0.4686222679447383
184.49656324391253	1	learning	violation	2	B	22	scene	indoor	1	0.8536668510641903
187.49653153994583	1	learning	violation	2	A	23	scene	indoor	1	0.5316943069919944
190.4964944969397	1	learning	violation	2	B	23	scene	indoor	1	0.6027130889706314
193.4964450249681	1	learning	nonviolation	3	A	69	scene	outdoor	1	0.4807841680012643
196.4964151669992	1	learning	nonviolation	3	B	69	scene	indoor	1	0.5258172448957339
199.4963607279351	1	learning	nonviolation	2	A	70	scene	indoor	1	0.5118693970143795
202.4963342739502	1	learning	nonviolation	2	B	70	scene	outdoor	0	0.6059183819452301
205.4962834320031	1	learning	violation	3	A	20	scene	indoor	1	0.6139525698963553
208.49624836898877	1	learning	violation	3	B	20	scene	outdoor	1	0.5759800759842619
211.49621129990555	1	learning	nonviolation	3	A	67	scene	indoor	1	0.6970180300995708
214.49616695893928	1	learning	nonviolation	3	B	67	scene	outdoor	1	0.5670635610586032
217.4961203970015	1	learning	nonviolation	3	A	65	scene	indoor	1	0.6071137120015919
220.4960853769444	1	learning	nonviolation	3	B	65	scene	indoor	1	0.7161557889776304
223.4960446249461	1	learning	nonviolation	3	A	70	scene	indoor	1	0.6331912080058828
226.4959993229713	1	learning	nonviolation	3	B	70	scene	outdoor	1	0.6771148949628696
229.49595727492127	1	learning	violation	3	A	18	scene	outdoor	1	0.6292796310735866
232.49591699196026	1	learning	violation	3	B	18	scene	indoor	1	0.5223153909901157
235.4958876699675	1	learning	violation	4	A	17	scene	outdoor	1	0.7563584329327568
238.4958370559616	1	learning	violation	4	B	17	scene	outdoor	1	0.4933996800100431
241.49579527892638	1	learning	violation	3	A	21	scene	indoor	1	0.5794460370671004
244.49575318791904	1	learning	violation	3	B	21	scene	outdoor	1	0.5834837360307574
247.495714116958	1	learning	nonviolation	4	A	66	scene	outdoor	1	0.6165232829516754
250.49568021995944	1	learning	nonviolation	4	B	66	scene	indoor	1	1.0265559849794954
253.49564097600526	1	learning	nonviolation	3	A	68	scene	indoor	1	0.4845911319134757
256.49559441697784	1	learning	nonviolation	3	B	68	scene	indoor	1	0.550640883971937
259.4955558219226	1	learning	violation	4	A	21	scene	indoor	1	0.5746839250205085
262.4955092399614	1	learning	violation	4	B	21	scene	outdoor	1	0.5987279450055212
265.49546901893336	1	learning	violation	3	A	19	scene	outdoor	1	0.5477736450266093
268.49542800092604	1	learning	violation	3	B	19	scene	indoor	1	0.5568073670146987
271.495390233933	1	learning	nonviolation	2	A	71	scene	outdoor	1	0.5737337910104543
274.49535487999674	1	learning	nonviolation	2	B	71	scene	outdoor	1	0.5378818470053375
277.49530825298285	1	learning	violation	3	A	23	scene	indoor	1	0.8589314239798114
280.4952661579009	1	learning	violation	3	B	23	scene	indoor	1	0.6849786899983883
283.4952341319294	1	learning	violation	4	A	19	scene	outdoor	1	0.5280069849686697
286.4951854899992	1	learning	violation	4	B	19	scene	indoor	1	0.4960546880029142
289.49514335196	1	learning	violation	3	A	22	scene	indoor	1	0.5491016140440479
292.49511060898664	1	learning	violation	3	B	22	scene	indoor	1	0.48212686390616
295.49506212491536	1	learning	violation	4	A	18	scene	outdoor	1	0.5611867440165952
298.4950283599319	1	learning	violation	4	B	18	scene	indoor	1	0.5812143089715391
301.49498782900633	1	learning	nonviolation	4	A	69	scene	outdoor	1	0.5442566518904641
304.4949498329079	1	learning	nonviolation	4	B	69	scene	indoor	1	0.5212942099897191
307.49490793293813	1	learning	nonviolation	4	A	65	scene	indoor	1	0.4893414640100673
310.49489583692053	1	learning	nonviolation	4	B	65	scene	indoor	1	0.9203564440831542
313.4948263359256	1	learning	violation	4	A	20	scene	indoor	1	0.8814228990813717
316.49477875593584	1	learning	violation	4	B	20	scene	outdoor	1	0.9004671389702708
319.49474715697585	1	restudy	nonviolation	5	B	66	scene	indoor	0	0.6703820750117302
322.494710761006	1	violation	violation	5	A	17	scene	outdoor	1	0.4835358599666506
325.4946625599405	1	violation	violation	1	X	17	face	male	1	0.9345878179883584
328.4946168949828	1	learning	nonviolation	4	A	67	scene	indoor	1	0.5636259699240327
331.49457340792287	1	learning	nonviolation	4	B	67	scene	outdoor	1	0.6906027920776978
334.49453462299425	1	violation	violation	5	A	19	scene	outdoor	1	0.5157129019498825
337.4944925348973	1	violation	violation	1	X	19	face	female	1	0.4746903560589999
340.49446050194086	1	learning	violation	4	A	23	scene	indoor	1	0.5307881810003892
343.49441204092005	1	learning	violation	4	B	23	scene	indoor	1	0.5918398990761489
346.49438213289255	1	learning	nonviolation	4	A	70	scene	indoor	1	0.5148683810839431
349.49433025799226	1	learning	nonviolation	4	B	70	scene	outdoor	0	0.5749163959408179
352.4942981099012	1	learning	violation	2	A	24	scene	outdoor	1	0.5779512299923226
355.4942446378991	1	learning	violation	2	B	24	scene	outdoor	1	0.5280303260078654
358.49421359191183	1	restudy	nonviolation	5	B	67	scene	outdoor	1	0.501036792062223
361.4941656169249	1	learning	nonviolation	4	A	68	scene	indoor	1	0.44208309706300497
364.49413172400085	1	learning	nonviolation	4	B	68	scene	indoor	1	0.7141226889798418
367.49408548290376	1	restudy	nonviolation	5	B	69	scene	indoor	1	0.5241633570985869
370.4940553579945	1	restudy	nonviolation	5	B	65	scene	indoor	0	0.5391937299864367
373.4940092519391	1	violation	violation	5	A	21	scene	indoor	1	0.4722451759735122
376.49395994096994	1	violation	violation	1	X	21	face	male	1	0.6532920700265095
379.49393178196624	1	learning	nonviolation	3	A	71	scene	outdoor	1	0.6383353050332516
382.4938798319782	1	learning	nonviolation	3	B	71	scene	outdoor	0	0.8643774669617414
385.49384025298065	1	restudy	violation	5	B	17	scene	outdoor	1	0.44638582691550255
388.4937995399814	1	violation	violation	5	A	18	scene	outdoor	1	0.5584570519858971
391.49375577794854	1	violation	violation	1	X	18	face	female	1	0.7395008590538055
394.49372426897753	1	learning	violation	4	A	22	scene	indoor	1	0.6115353349596262
397.4936753109796	1	learning	violation	4	B	22	scene	indoor	1	0.5125797089422122
400.49363541300414	1	learning	violation	3	A	24	scene	outdoor	1	0.5876149069517851
403.49359378090594	1	learning	violation	3	B	24	scene	outdoor	1	0.592666162061505
406.49355215695687	1	restudy	nonviolation	5	B	68	scene	indoor	1	0.5056253250222653
409.4935205619549	1	restudy	nonviolation	6	B	66	scene	indoor	1	0.7717478190315887
412.49347698595375	1	violation	violation	5	A	20	scene	indoor	1	0.5897841979749501
415.49344041594304	1	violation	violation	1	X	20	face	male	1	0.7408153070136905
418.49339018994937	1	restudy	nonviolation	6	B	65	scene	indoor	1	0.5528645250014961
421.4933538238984	1	restudy	violation	5	B	19	scene	indoor	1	0.5069051100872457
424.4933142999653	1	restudy	violation	5	B	18	scene	indoor	1	0.4939450490055606
427.4933088709368	1	violation	violation	5	A	22	scene	indoor	1	0.6139560480369255
430.49323411798105	1	violation	violation	1	X	22	face	female	1	0.8070260299136862
433.4931942709954	1	restudy	nonviolation	5	B	70	scene	outdoor	1	0.7250691798981279
436.4931446060072	1	violation	violation	5	A	23	scene	indoor	1	0.6541173309087753
439.4931323779747	1	violation	violation	1	X	23	face	female	1	0.5891269990243018
442.49307304399554	1	restudy	nonviolation	6	B	69	scene	indoor	1	0.4761852839728817
445.4930312159704	1	violation	violation	6	A	18	scene	outdoor	1	0.8152310679433867
448.49298099300364	1	violation	violation	1	Y	18	face	female	1	0.5352761138929054
451.49294924794225	1	restudy	nonviolation	6	B	67	scene	outdoor	1	0.5263189129764214
454.476220101933	1	learning	nonviolation	4	A	71	scene	outdoor	1	0.5010434690630063
457.47618183295714	1	learning	nonviolation	4	B	71	scene	outdoor	1	0.8630886350292712
460.47613822889986	1	learning	nonviolation	2	A	72	scene	outdoor	1	0.7941271529998629
463.476099713007	1	learning	nonviolation	2	B	72	scene	outdoor	1	0.8401681989198551
466.4760549229104	1	restudy	violation	5	B	21	scene	outdoor	1	0.4792109880363569
469.47601890994696	1	violation	violation	6	A	17	scene	outdoor	1	0.6411233959952369
472.4759744419716	1	violation	violation	1	Y	17	face	male	1	0.7322911210358143
475.4759422019124	1	restudy	violation	5	B	22	scene	indoor	1	0.5203200910473242
478.4758989439579	1	restudy	nonviolation	5	B	71	scene	outdoor	1	0.5133700079750271
481.4758619379718	1	learning	nonviolation	3	A	72	scene	outdoor	1	0.5684050349518657
484.4758220859803	1	learning	nonviolation	3	B	72	scene	outdoor	1	0.5684411010006443
487.47577801300207	1	violation	violation	6	A	19	scene	outdoor	1	0.4364900169894099
490.4757341899676	1	violation	violation	1	Y	19	face	female	1	0.6234645870281383
493.47570963297034	1	learning	violation	4	A	24	scene	outdoor	1	0.5355598849710077
496.4756681619911	1	learning	violation	4	B	24	scene	outdoor	1	0.5126033879350871
499.47561789094465	1	restudy	nonviolation	6	B	68	scene	indoor	0	0.598649414954707
502.4755732360063	1	restudy	violation	5	B	20	scene	outdoor	1	0.5676259018946439
505.47554461599793	1	restudy	nonviolation	6	B	71	scene	outdoor	1	0.5577238419791684
508.4754917639075	1	restudy	violation	6	B	18	scene	indoor	1	0.7497812650399283
511.47545666596847	1	learning	nonviolation	4	A	72	scene	outdoor	1	0.5497552290325984
514.4754227499943	1	learning	nonviolation	4	B	72	scene	outdoor	1	0.7498507089912891
517.4753845869564	1	violation	violation	5	A	24	scene	outdoor	1	0.497891013044864
520.4753335469868	1	violation	violation	1	X	24	face	male	1	0.7259390800027177
523.475301691913	1	restudy	nonviolation	6	B	70	scene	outdoor	1	0.6159693280933425
526.4752513229613	1	restudy	nonviolation	5	B	72	scene	outdoor	1	0.4690206330269575
529.4752037009457	1	restudy	violation	5	B	23	scene	indoor	1	0.6849895140621811
532.475177208893	1	restudy	violation	5	B	24	scene	outdoor	1	0.5760955921141431
535.4751378030049	1	violation	violation	6	A	22	scene	indoor	1	0.5160630289465189
538.4750877720071	1	violation	violation	1	Y	22	face	female	1	1.0441892358940097
541.4750546308933	1	restudy	violation	6	B	19	scene	indoor	1	0.4882220770232379
544.4750053129392	1	violation	violation	6	A	21	scene	indoor	1	0.6772660600254312
547.4749736579834	1	violation	violation	1	Y	21	face	male	1	0.8442974619101733
550.4749191609444	1	restudy	violation	6	B	17	scene	outdoor	1	0.5802923480514437
553.4748998099241	1	restudy	violation	6	B	22	scene	indoor	1	0.5113722200039774
556.4748434989015	1	violation	violation	6	A	24	scene	outdoor	1	0.5904419330181554
559.4748027439929	1	violation	violation	1	Y	24	face	male	1	0.7084732529474422
562.474779662909	1	violation	violation	6	A	20	scene	indoor	1	0.6065019640373066
565.4747240189462	1	violation	violation	1	Y	20	face	male	1	0.8415589319774881
568.4746871159878	1	violation	violation	6	A	23	scene	indoor	1	0.6625908419955522
571.4746481509646	1	violation	violation	1	Y	23	face	female	1	0.7086349329911172
574.4746140729402	1	restudy	violation	6	B	21	scene	outdoor	1	0.8626656690612435
577.4745590769453	1	restudy	violation	6	B	20	scene	outdoor	1	0.4447201229631901
580.4745177379809	1	restudy	violation	6	B	23	scene	indoor	1	0.5157639839453623
583.4744740159949	1	restudy	violation	6	B	24	scene	outdoor	0	0.5778107519727199
586.4744338029997	1	restudy	nonviolation	6	B	72	scene	outdoor	1	0.5057747788960114
