onset	duration	trial_type	reward_condition	condition	repetition	pairmate	pairID	response_accuracy	response_time
13.503193723037839	2.5	scene	reward	violation	3	A	15	1	0.6041357499780133
16.00319372303784	3.0	feedback	n/a	n/a	n/a	n/a	n/a	n/a	n/a
19.50311802804936	2.5	scene	reward	violation	3	A	11	1	0.6182121760211885
22.00311802804936	3.0	feedback	n/a	n/a	n/a	n/a	n/a	n/a	n/a
25.506325356080197	2.5	scene	reward	nonviolation	3	A	51	1	0.515009094029665
28.006325356080197	3.0	feedback	n/a	n/a	n/a	n/a	n/a	n/a	n/a
31.502952297101732	2.5	scene	reward	nonviolation	3	A	57	1	0.6413790929364039
34.00295229710173	3.0	feedback	n/a	n/a	n/a	n/a	n/a	n/a	n/a
37.50287859409582	2.5	scene	neutral	nonviolation	3	A	80	1	0.5824565709335731
40.00287859409582	3.0	feedback	n/a	n/a	n/a	n/a	n/a	n/a	n/a
43.502824238035835	2.5	scene	reward	nonviolation	3	A	86	1	0.6505168189760298
46.002824238035835	3.0	feedback	n/a	n/a	n/a	n/a	n/a	n/a	n/a
49.50587580900174	2.5	scene	neutral	nonviolation	3	A	71	1	0.7474624940659851
52.00587580900174	3.0	feedback	n/a	n/a	n/a	n/a	n/a	n/a	n/a
55.50439628900494	2.5	scene	reward	nonviolation	3	A	74	1	0.6159393180860206
58.00439628900494	3.0	feedback	n/a	n/a	n/a	n/a	n/a	n/a	n/a
61.502559062093496	2.5	scene	reward	violation	3	A	18	1	0.5937813599593937
64.0025590620935	3.0	feedback	n/a	n/a	n/a	n/a	n/a	n/a	n/a
67.50487647810951	2.5	scene	reward	nonviolation	3	A	64	1	0.6893892899388447
70.00487647810951	3.0	feedback	n/a	n/a	n/a	n/a	n/a	n/a	n/a
73.50240064703394	2.5	scene	neutral	nonviolation	3	A	91	1	0.6799215310020372
76.00240064703394	3.0	feedback	n/a	n/a	n/a	n/a	n/a	n/a	n/a
79.50232063105796	2.5	scene	neutral	violation	3	A	7	1	0.6360154260182753
82.00232063105796	3.0	feedback	n/a	n/a	n/a	n/a	n/a	n/a	n/a
85.50410081807057	2.5	scene	neutral	violation	3	A	3	1	0.6022420669905841
88.00410081807058	3.0	feedback	n/a	n/a	n/a	n/a	n/a	n/a	n/a
91.50361201306805	2.5	scene	neutral	nonviolation	3	A	60	1	0.5267262980341911
94.00361201306805	3.0	feedback	n/a	n/a	n/a	n/a	n/a	n/a	n/a
97.50312562100588	2.5	scene	reward	violation	3	A	44	1	0.7121470430865884
100.00312562100588	3.0	feedback	n/a	n/a	n/a	n/a	n/a	n/a	n/a
103.50264057703316	2.5	scene	neutral	violation	3	A	20	1	1.1227052160538733
106.00264057703316	3.0	feedback	n/a	n/a	n/a	n/a	n/a	n/a	n/a
109.50192378205247	2.5	scene	neutral	violation	3	A	31	1	0.6783883230527863
112.00192378205247	3.0	feedback	n/a	n/a	n/a	n/a	n/a	n/a	n/a
115.50184363301378	2.5	scene	neutral	nonviolation	3	A	68	1	1.0155054390197622
118.00184363301378	3.0	feedback	n/a	n/a	n/a	n/a	n/a	n/a	n/a
121.50181367702316	2.5	scene	reward	violation	3	A	41	1	0.552530735032633
124.00181367702316	3.0	feedback	n/a	n/a	n/a	n/a	n/a	n/a	n/a
127.50169569207355	2.5	scene	reward	violation	3	A	27	1	0.6946532939327881
130.00169569207355	3.0	feedback	n/a	n/a	n/a	n/a	n/a	n/a	n/a
133.5016140640946	2.5	scene	neutral	violation	3	A	30	1	0.6727331299334764
136.0016140640946	3.0	feedback	n/a	n/a	n/a	n/a	n/a	n/a	n/a
139.50153346406296	2.5	scene	reward	nonviolation	3	A	69	1	0.6128158969804645
142.001533464063	3.0	feedback	n/a	n/a	n/a	n/a	n/a	n/a	n/a
145.50144543300846	2.5	scene	neutral	nonviolation	3	A	73	1	0.6819027410820127
148.00144543300846	3.0	feedback	n/a	n/a	n/a	n/a	n/a	n/a	n/a
151.50136636709794	2.5	scene	neutral	nonviolation	3	A	50	1	0.7909900220111012
154.00136636709794	3.0	feedback	n/a	n/a	n/a	n/a	n/a	n/a	n/a
157.50131245702502	2.5	scene	reward	violation	3	A	40	1	0.5590409740107134
160.00131245702502	3.0	feedback	n/a	n/a	n/a	n/a	n/a	n/a	n/a
163.50120476202576	2.5	scene	neutral	violation	3	A	12	1	0.678951426059939
166.00120476202576	3.0	feedback	n/a	n/a	n/a	n/a	n/a	n/a	n/a
169.501133510028	2.5	scene	neutral	nonviolation	3	A	87	1	0.5812181510264054
172.001133510028	3.0	feedback	n/a	n/a	n/a	n/a	n/a	n/a	n/a
175.50105375703427	2.5	scene	neutral	violation	3	A	43	0	0.8711767069762573
178.00105375703427	3.0	feedback	n/a	n/a	n/a	n/a	n/a	n/a	n/a
181.500977067044	2.5	scene	reward	violation	3	A	4	1	0.6714061730308458
184.000977067044	3.0	feedback	n/a	n/a	n/a	n/a	n/a	n/a	n/a
187.50088935205716	2.5	scene	reward	violation	3	A	6	1	0.5604658010415733
190.00088935205716	3.0	feedback	n/a	n/a	n/a	n/a	n/a	n/a	n/a
193.50080574001183	2.5	scene	neutral	nonviolation	3	A	63	0	1.190544059034437
196.00080574001183	3.0	feedback	n/a	n/a	n/a	n/a	n/a	n/a	n/a
199.5007245130837	2.5	scene	reward	nonviolation	3	A	67	1	0.7415525959804654
202.0007245130837	3.0	feedback	n/a	n/a	n/a	n/a	n/a	n/a	n/a
205.5006539660972	2.5	scene	reward	nonviolation	3	A	85	1	0.6157001620158553
208.0006539660972	3.0	feedback	n/a	n/a	n/a	n/a	n/a	n/a	n/a
211.500571767101	2.5	scene	neutral	nonviolation	3	A	56	1	0.5767805249197409
214.000571767101	3.0	feedback	n/a	n/a	n/a	n/a	n/a	n/a	n/a
217.5004916890757	2.5	scene	neutral	nonviolation	3	A	83	1	0.6198675709310919
220.0004916890757	3.0	feedback	n/a	n/a	n/a	n/a	n/a	n/a	n/a
223.5004118300276	2.5	scene	reward	nonviolation	3	A	54	1	0.5919534000568092
226.0004118300276	3.0	feedback	n/a	n/a	n/a	n/a	n/a	n/a	n/a
229.5003259420628	2.5	scene	reward	violation	3	A	17	1	0.6030336819821969
232.0003259420628	3.0	feedback	n/a	n/a	n/a	n/a	n/a	n/a	n/a
235.50024988909718	2.5	scene	reward	violation	3	A	25	1	0.8151188369374722
238.00024988909718	3.0	feedback	n/a	n/a	n/a	n/a	n/a	n/a	n/a
241.50016997300557	2.5	scene	neutral	violation	3	A	36	0	0.7831906640203671
244.00016997300557	3.0	feedback	n/a	n/a	n/a	n/a	n/a	n/a	n/a
247.5000844560564	2.5	scene	neutral	violation	3	A	13	1	0.6652757029514761
250.0000844560564	3.0	feedback	n/a	n/a	n/a	n/a	n/a	n/a	n/a
253.50000619504132	2.5	scene	neutral	nonviolation	3	A	95	1	0.6653528399765491
256.0000061950413	3.0	feedback	n/a	n/a	n/a	n/a	n/a	n/a	n/a
259.49993412103504	2.5	scene	reward	nonviolation	3	A	79	1	0.6864282870665193
261.99993412103504	3.0	feedback	n/a	n/a	n/a	n/a	n/a	n/a	n/a
265.4998487340053	2.5	scene	reward	nonviolation	3	A	93	1	0.8875185881042853
267.9998487340053	3.0	feedback	n/a	n/a	n/a	n/a	n/a	n/a	n/a
271.49977088405285	2.5	scene	reward	violation	3	A	34	1	0.7826004580128938
273.99977088405285	3.0	feedback	n/a	n/a	n/a	n/a	n/a	n/a	n/a
277.4996891861083	2.5	scene	neutral	violation	3	A	48	1	0.6645609729457647
279.9996891861083	3.0	feedback	n/a	n/a	n/a	n/a	n/a	n/a	n/a
283.4996119220741	2.5	scene	neutral	violation	3	A	39	1	0.6727539979619905
285.9996119220741	3.0	feedback	n/a	n/a	n/a	n/a	n/a	n/a	n/a
289.49952275806567	2.5	scene	neutral	violation	3	A	22	1	0.9387924650218338
291.99952275806567	3.0	feedback	n/a	n/a	n/a	n/a	n/a	n/a	n/a
295.49944790801965	2.5	scene	reward	nonviolation	3	A	94	1	0.7249176250770688
297.99944790801965	3.0	feedback	n/a	n/a	n/a	n/a	n/a	n/a	n/a
301.49936107208487	2.5	scene	reward	violation	4	A	6	1	0.6760048299329355
303.99936107208487	3.0	feedback	n/a	n/a	n/a	n/a	n/a	n/a	n/a
307.49928131711204	2.5	scene	neutral	violation	4	A	48	1	0.646086361957714
309.99928131711204	3.0	feedback	n/a	n/a	n/a	n/a	n/a	n/a	n/a
313.49920077004936	2.5	scene	neutral	nonviolation	4	A	56	1	0.5731699060415849
315.99920077004936	3.0	feedback	n/a	n/a	n/a	n/a	n/a	n/a	n/a
319.4991188790882	2.5	scene	reward	nonviolation	4	A	86	1	0.6471985799726099
321.9991188790882	3.0	feedback	n/a	n/a	n/a	n/a	n/a	n/a	n/a
325.49904954002704	2.5	scene	neutral	violation	4	A	22	1	0.5463224640116096
327.99904954002704	3.0	feedback	n/a	n/a	n/a	n/a	n/a	n/a	n/a
331.4989635871025	2.5	scene	neutral	violation	4	A	43	1	0.8194168779300526
333.9989635871025	3.0	feedback	n/a	n/a	n/a	n/a	n/a	n/a	n/a
337.49887844303163	2.5	scene	neutral	nonviolation	4	A	50	1	0.7284993110224605
339.99887844303163	3.0	feedback	n/a	n/a	n/a	n/a	n/a	n/a	n/a
343.49879784602666	2.5	scene	neutral	violation	4	A	13	1	0.7125731880078092
345.99879784602666	3.0	feedback	n/a	n/a	n/a	n/a	n/a	n/a	n/a
349.4820427120431	2.5	scene	neutral	nonviolation	4	A	60	1	0.7383331590099259
351.9820427120431	3.0	feedback	n/a	n/a	n/a	n/a	n/a	n/a	n/a
355.48196160106454	2.5	scene	reward	nonviolation	4	A	94	1	0.6754175069509074
357.98196160106454	3.0	feedback	n/a	n/a	n/a	n/a	n/a	n/a	n/a
361.4985596881015	2.5	scene	neutral	nonviolation	4	A	80	1	0.8628160349326208
363.9985596881015	3.0	feedback	n/a	n/a	n/a	n/a	n/a	n/a	n/a
367.4817984590772	2.5	scene	reward	violation	4	A	11	1	0.7005793789867312
369.9817984590772	3.0	feedback	n/a	n/a	n/a	n/a	n/a	n/a	n/a
373.4817280670395	2.5	scene	reward	violation	4	A	34	1	0.8146551119862124
375.9817280670395	3.0	feedback	n/a	n/a	n/a	n/a	n/a	n/a	n/a
379.48164800903766	2.5	scene	neutral	nonviolation	4	A	83	1	0.6827271870570257
381.98164800903766	3.0	feedback	n/a	n/a	n/a	n/a	n/a	n/a	n/a
385.4815674540587	2.5	scene	reward	violation	4	A	15	1	0.6958178570494056
387.9815674540587	3.0	feedback	n/a	n/a	n/a	n/a	n/a	n/a	n/a
391.48148839001084	2.5	scene	neutral	violation	4	A	36	0	1.1378937440458683
393.98148839001084	3.0	feedback	n/a	n/a	n/a	n/a	n/a	n/a	n/a
397.48140696610784	2.5	scene	neutral	nonviolation	4	A	87	1	0.6539058209164068
399.98140696610784	3.0	feedback	n/a	n/a	n/a	n/a	n/a	n/a	n/a
403.4813280930976	2.5	scene	reward	nonviolation	4	A	79	1	0.6050565409241244
405.9813280930976	3.0	feedback	n/a	n/a	n/a	n/a	n/a	n/a	n/a
409.48124826711137	2.5	scene	reward	violation	4	A	27	1	0.7391343479976058
411.98124826711137	3.0	feedback	n/a	n/a	n/a	n/a	n/a	n/a	n/a
415.48115671810234	2.5	scene	neutral	nonviolation	4	A	63	1	0.7902277709217742
417.98115671810234	3.0	feedback	n/a	n/a	n/a	n/a	n/a	n/a	n/a
421.481078511104	2.5	scene	reward	nonviolation	4	A	64	1	0.7603111639618874
423.981078511104	3.0	feedback	n/a	n/a	n/a	n/a	n/a	n/a	n/a
427.480998638086	2.5	scene	neutral	nonviolation	4	A	73	1	0.6893874600064009
429.980998638086	3.0	feedback	n/a	n/a	n/a	n/a	n/a	n/a	n/a
433.48539876111323	2.5	scene	neutral	nonviolation	4	A	68	1	1.11698912398424
435.98539876111323	3.0	feedback	n/a	n/a	n/a	n/a	n/a	n/a	n/a
439.4808456260944	2.5	scene	reward	nonviolation	4	A	57	1	0.7354675179813057
441.9808456260944	3.0	feedback	n/a	n/a	n/a	n/a	n/a	n/a	n/a
445.48457821807824	2.5	scene	neutral	violation	4	A	30	1	0.7137320629553869
447.98457821807824	3.0	feedback	n/a	n/a	n/a	n/a	n/a	n/a	n/a
451.48510674305726	2.5	scene	reward	nonviolation	4	A	69	1	0.7712858390295878
453.98510674305726	3.0	feedback	n/a	n/a	n/a	n/a	n/a	n/a	n/a
457.4806094811065	2.5	scene	neutral	violation	4	A	39	1	0.6377377699827775
459.9806094811065	3.0	feedback	n/a	n/a	n/a	n/a	n/a	n/a	n/a
463.4805338060251	2.5	scene	reward	nonviolation	4	A	67	1	0.6898628550115973
465.9805338060251	3.0	feedback	n/a	n/a	n/a	n/a	n/a	n/a	n/a
469.48356133908965	2.5	scene	neutral	violation	4	A	20	1	0.7767075300216675
471.98356133908965	3.0	feedback	n/a	n/a	n/a	n/a	n/a	n/a	n/a
475.48036917008005	2.5	scene	reward	violation	4	A	4	1	0.5570207330165431
477.98036917008005	3.0	feedback	n/a	n/a	n/a	n/a	n/a	n/a	n/a
481.4840513680829	2.5	scene	reward	nonviolation	4	A	54	1	0.6003465459216386
483.9840513680829	3.0	feedback	n/a	n/a	n/a	n/a	n/a	n/a	n/a
487.4802037751069	2.5	scene	reward	violation	4	A	44	1	0.6591886089881882
489.9802037751069	3.0	feedback	n/a	n/a	n/a	n/a	n/a	n/a	n/a
493.48223229311407	2.5	scene	neutral	nonviolation	4	A	91	1	0.8201603778870776
495.98223229311407	3.0	feedback	n/a	n/a	n/a	n/a	n/a	n/a	n/a
499.4800570911029	2.5	scene	reward	violation	4	A	17	1	0.5923419289756566
501.9800570911029	3.0	feedback	n/a	n/a	n/a	n/a	n/a	n/a	n/a
505.48170835408376	2.5	scene	reward	violation	4	A	18	1	0.7136917680036277
507.98170835408376	3.0	feedback	n/a	n/a	n/a	n/a	n/a	n/a	n/a
511.48222468409216	2.5	scene	neutral	nonviolation	4	A	95	1	0.5461767269298434
513.9822246840922	3.0	feedback	n/a	n/a	n/a	n/a	n/a	n/a	n/a
517.4798032770632	2.5	scene	reward	nonviolation	4	A	85	1	0.6465896150330082
519.9798032770632	3.0	feedback	n/a	n/a	n/a	n/a	n/a	n/a	n/a
523.4797225170769	2.5	scene	neutral	violation	4	A	7	1	0.5996782330330461
525.9797225170769	3.0	feedback	n/a	n/a	n/a	n/a	n/a	n/a	n/a
529.4796469770372	2.5	scene	reward	nonviolation	4	A	51	1	0.5817759899655357
531.9796469770372	3.0	feedback	n/a	n/a	n/a	n/a	n/a	n/a	n/a
535.4795616830233	2.5	scene	reward	nonviolation	4	A	74	1	0.6508451370755209
537.9795616830233	3.0	feedback	n/a	n/a	n/a	n/a	n/a	n/a	n/a
541.4794879300753	2.5	scene	reward	nonviolation	4	A	93	1	0.6559140969766304
543.9794879300753	3.0	feedback	n/a	n/a	n/a	n/a	n/a	n/a	n/a
547.4794017440872	2.5	scene	neutral	violation	4	A	12	1	0.540875306003727
549.9794017440872	3.0	feedback	n/a	n/a	n/a	n/a	n/a	n/a	n/a
553.4793689730577	2.5	scene	neutral	violation	4	A	31	1	0.6629652270348743
555.9793689730577	3.0	feedback	n/a	n/a	n/a	n/a	n/a	n/a	n/a
559.479240937042	2.5	scene	reward	violation	4	A	41	1	0.5831381609896198
561.979240937042	3.0	feedback	n/a	n/a	n/a	n/a	n/a	n/a	n/a
565.4794188410742	2.5	scene	neutral	nonviolation	4	A	71	1	0.5199844019953161
567.9794188410742	3.0	feedback	n/a	n/a	n/a	n/a	n/a	n/a	n/a
571.4790807700482	2.5	scene	reward	violation	4	A	25	1	0.7703235070221126
573.9790807700482	3.0	feedback	n/a	n/a	n/a	n/a	n/a	n/a	n/a
577.4790037340717	2.5	scene	reward	violation	4	A	40	1	0.7173092570155859
579.9790037340717	3.0	feedback	n/a	n/a	n/a	n/a	n/a	n/a	n/a
583.4789262471023	2.5	scene	neutral	violation	4	A	3	1	0.5824164439691231
585.9789262471023	3.0	feedback	n/a	n/a	n/a	n/a	n/a	n/a	n/a
