onset	duration	trial_type	condition	repetition	pairmate	pairID	category	subcategory	response_accuracy	response_time
13.513080944772812	1	prelearning	violation	1	A	3	scene	indoor	1	0.7673877142369747
16.513052149675783	1	prelearning	nonviolation	1	A	49	scene	indoor	1	0.5664262589998543
19.513002251740545	1	prelearning	nonviolation	1	A	50	scene	outdoor	1	0.5284692822024226
22.512971139047295	1	prelearning	violation	1	A	2	scene	indoor	1	0.5254975399002433
25.51292349211872	1	prelearning	nonviolation	1	B	55	scene	indoor	1	0.500547781586647
28.496204501017928	1	prelearning	nonviolation	1	B	50	scene	indoor	1	0.5702724107541144
31.496166706085205	1	prelearning	nonviolation	1	A	56	scene	indoor	1	0.5863114367239177
34.512820031959556	1	prelearning	violation	1	B	7	scene	outdoor	1	0.6546527207829058
37.51276785088703	1	prelearning	nonviolation	1	B	52	scene	outdoor	0	0.8707041200250387
40.51273618172854	1	prelearning	violation	1	B	5	scene	outdoor	1	0.7057373239658773
43.51268293568865	1	prelearning	violation	1	B	4	scene	outdoor	1	0.9427550742402672
46.49597478285432	1	prelearning	violation	1	A	8	scene	outdoor	1	0.5895213261246681
49.49592947401106	1	prelearning	nonviolation	1	A	54	scene	outdoor	1	0.6964677199721336
52.49589442787692	1	prelearning	nonviolation	1	A	52	scene	indoor	1	0.5925036161206663
55.49585969978944	1	prelearning	nonviolation	1	B	53	scene	outdoor	1	0.5366178438998759
58.495815196074545	1	prelearning	violation	1	B	8	scene	indoor	1	0.6586608137004077
61.495768148917705	1	prelearning	violation	1	B	6	scene	indoor	1	0.7456746688112617
64.49573371885343	1	prelearning	nonviolation	1	B	54	scene	outdoor	1	0.5596698368899524
67.4957040580921	1	prelearning	violation	1	B	3	scene	outdoor	1	0.5337748345918953
70.49565729498862	1	prelearning	violation	1	A	1	scene	outdoor	1	0.4467910937964916
73.4956181999296	1	prelearning	violation	1	A	7	scene	outdoor	1	0.6108670928515494
76.49558188067748	1	prelearning	nonviolation	1	A	53	scene	outdoor	1	0.5818953514099121
79.49553631199522	1	prelearning	nonviolation	1	A	55	scene	outdoor	1	0.5159563459455967
82.49550060695037	1	prelearning	violation	1	B	1	scene	indoor	1	0.6209811898879707
85.49546083668247	1	prelearning	violation	1	A	5	scene	indoor	0	0.5310208643786609
88.49542000703514	1	prelearning	violation	1	B	2	scene	indoor	1	0.6760632828809321
91.49538343772294	1	prelearning	nonviolation	1	B	51	scene	indoor	1	0.6571035590022802
94.49534414382653	1	prelearning	nonviolation	1	B	49	scene	outdoor	1	0.5181411290541291
97.49530105106531	1	prelearning	nonviolation	1	A	51	scene	indoor	1	0.5881753698922694
100.49526234902443	1	prelearning	violation	1	A	4	scene	outdoor	1	0.5931342910043895
103.49521433888005	1	prelearning	violation	1	A	6	scene	indoor	1	0.5512676001526415
106.49518085410818	1	prelearning	nonviolation	1	B	56	scene	indoor	1	0.6283030696213245
109.49514419166373	1	learning	nonviolation	2	A	49	scene	indoor	1	0.5673382272943854
112.49510499369352	1	learning	nonviolation	2	B	49	scene	outdoor	1	0.6143790953792632
115.49506147904322	1	learning	nonviolation	2	A	50	scene	outdoor	1	0.5554215707816184
118.49501998769121	1	learning	nonviolation	2	B	50	scene	indoor	1	0.6163861602544785
121.49498050892727	1	learning	nonviolation	2	A	51	scene	indoor	1	0.5994303501211107
124.49494804209098	1	learning	nonviolation	2	B	51	scene	indoor	1	0.5585400918498635
127.49490707693623	1	learning	violation	2	A	1	scene	outdoor	1	0.5735753830522299
130.4948639026843	1	learning	violation	2	B	1	scene	indoor	1	0.5836259094066918
133.49482464510947	1	learning	violation	2	A	2	scene	indoor	1	0.6276285229250789
136.49478337401524	1	learning	violation	2	B	2	scene	indoor	1	0.6317082839086652
139.49478887207806	1	learning	violation	2	A	3	scene	indoor	1	0.5486975735984743
142.49472405668345	1	learning	violation	2	B	3	scene	outdoor	1	0.5276850452646613
145.49469869071618	1	learning	violation	2	A	4	scene	outdoor	1	0.537769494112581
148.49465530877933	1	learning	violation	2	B	4	scene	outdoor	1	0.5018313829787076
151.4945906670764	1	learning	violation	3	A	2	scene	indoor	1	0.5999044086784124
154.49454579409212	1	learning	violation	3	B	2	scene	indoor	1	0.5659388275817037
157.49450280377638	1	learning	nonviolation	3	A	50	scene	outdoor	1	0.5079854968935251
160.49446662608534	1	learning	nonviolation	3	B	50	scene	indoor	1	0.5350255556404591
163.4944236180745	1	learning	nonviolation	2	A	52	scene	indoor	1	0.5830656378529966
166.49439675966278	1	learning	nonviolation	2	B	52	scene	outdoor	1	0.6260206634178758
169.49434491991997	1	learning	violation	2	A	5	scene	indoor	0	0.5701477979309857
172.4943022178486	1	learning	violation	2	B	5	scene	outdoor	1	0.7171168131753802
175.49431085400283	1	learning	nonviolation	3	A	51	scene	indoor	1	0.5261761527508497
178.49422740982845	1	learning	nonviolation	3	B	51	scene	indoor	1	0.4832412572577596
181.49419635906816	1	learning	nonviolation	3	A	52	scene	indoor	1	0.5362979997880757
184.4941432159394	1	learning	nonviolation	3	B	52	scene	outdoor	1	0.5883488268591464
187.49411722086367	1	learning	violation	3	A	3	scene	indoor	1	0.5843746778555214
190.49407086893916	1	learning	violation	3	B	3	scene	outdoor	1	0.5243915128521621
193.49402493890372	1	learning	nonviolation	4	A	51	scene	indoor	1	0.5574644338339567
196.493981259875	1	learning	nonviolation	4	B	51	scene	indoor	1	0.5164316878654063
199.4939901237376	1	learning	nonviolation	4	A	52	scene	indoor	1	0.4945087851956487
202.493941243738	1	learning	nonviolation	4	B	52	scene	outdoor	1	0.5465552853420377
205.4938734089956	1	learning	violation	4	A	2	scene	indoor	1	0.5076435976661742
208.4938284107484	1	learning	violation	4	B	2	scene	indoor	1	0.5086011621169746
211.49378912989053	1	learning	violation	2	A	6	scene	indoor	1	0.5956817450933158
214.4937679357827	1	learning	violation	2	B	6	scene	indoor	1	0.6577367251738906
217.49371390603486	1	learning	nonviolation	4	A	50	scene	outdoor	1	0.4867811710573733
220.49367904104287	1	learning	nonviolation	4	B	50	scene	indoor	1	0.5538179897703229
223.493635178078	1	learning	nonviolation	3	A	49	scene	indoor	1	0.5718724038451911
226.493586238008	1	learning	nonviolation	3	B	49	scene	outdoor	1	0.4889066130854189
229.49354582605883	1	learning	violation	3	A	4	scene	outdoor	1	0.7039758586324751
232.4935073400848	1	learning	violation	3	B	4	scene	outdoor	1	0.6029415628872812
235.49347983766347	1	restudy	nonviolation	5	B	51	scene	indoor	1	0.5200167293660343
238.49342360673472	1	restudy	nonviolation	5	B	52	scene	outdoor	1	0.5450718882493675
241.49339233292267	1	learning	violation	3	A	5	scene	indoor	0	0.558108523953706
244.4933561771177	1	learning	violation	3	B	5	scene	outdoor	1	0.52711017196998
247.49331271275884	1	learning	violation	3	A	1	scene	outdoor	1	0.5141880670562387
250.49326850008217	1	learning	violation	3	B	1	scene	indoor	1	0.5192388636060059
253.4932262087241	1	restudy	nonviolation	6	B	51	scene	indoor	1	0.4392790491692722
256.49318425776437	1	learning	nonviolation	2	A	53	scene	outdoor	1	0.8923150622285903
259.49314137082547	1	learning	nonviolation	2	B	53	scene	outdoor	1	0.4673629999160767
262.49311510194093	1	restudy	nonviolation	6	B	52	scene	outdoor	1	0.4963829168118537
265.493066214025	1	violation	violation	5	A	2	scene	indoor	1	0.5933853099122643
268.49302753200755	1	violation	violation	1	X	2	face	female	1	1.1404494890011847
271.493000634946	1	learning	violation	4	A	3	scene	indoor	1	0.6595004959963262
274.49295133072883	1	learning	violation	4	B	3	scene	outdoor	1	0.6695242412388325
277.4929064428434	1	learning	violation	2	A	7	scene	outdoor	1	0.5675955740734935
280.4928655079566	1	learning	violation	2	B	7	scene	outdoor	1	0.6676203738898039
283.49282609671354	1	learning	violation	4	A	4	scene	outdoor	1	0.5626814351417124
286.4927968727425	1	learning	violation	4	B	4	scene	outdoor	1	0.5016821203753352
289.4927660478279	1	learning	nonviolation	2	A	54	scene	outdoor	1	0.4987418171949685
292.49270687205717	1	learning	nonviolation	2	B	54	scene	outdoor	1	0.6387451179325581
295.4926622300409	1	learning	violation	2	A	8	scene	outdoor	1	0.6678421976976097
298.49262616969645	1	learning	violation	2	B	8	scene	indoor	1	0.6178577770479023
301.49258364969864	1	learning	violation	3	A	6	scene	indoor	1	0.5619164099916816
304.4925391660072	1	learning	violation	3	B	6	scene	indoor	1	0.6379664000123739
307.4925037766807	1	restudy	nonviolation	5	B	50	scene	indoor	1	0.6390084782615304
310.4924605707638	1	learning	violation	3	A	8	scene	outdoor	1	0.6100499639287591
313.49242446105933	1	learning	violation	3	B	8	scene	indoor	1	0.5860837926156819
316.4923890237696	1	restudy	violation	5	B	2	scene	indoor	1	0.6291222772561014
319.4923422071152	1	learning	violation	4	A	5	scene	indoor	0	0.5671616336330771
322.49229988968	1	learning	violation	4	B	5	scene	outdoor	1	0.5192153700627387
325.4922627271153	1	learning	violation	4	A	1	scene	outdoor	1	0.5012431675568223
328.49222552077845	1	learning	violation	4	B	1	scene	indoor	1	0.8322864188812673
331.49217937281355	1	learning	nonviolation	4	A	49	scene	indoor	1	0.5183093599043787
334.4921416956932	1	learning	nonviolation	4	B	49	scene	outdoor	1	0.5663698930293322
337.49210187094286	1	learning	violation	4	A	6	scene	indoor	1	0.5744119519367814
340.49206955870613	1	learning	violation	4	B	6	scene	indoor	1	0.7114414121024311
343.4920281148516	1	learning	nonviolation	2	A	55	scene	outdoor	1	0.7174813491292298
346.4919817820192	1	learning	nonviolation	2	B	55	scene	indoor	1	0.6595281967893243
349.49194023711607	1	learning	violation	4	A	8	scene	outdoor	1	0.5405746479518712
352.49190625175834	1	learning	violation	4	B	8	scene	indoor	1	0.5866143619641662
355.49187237909064	1	violation	violation	5	A	3	scene	indoor	n/a	n/a
358.4918243307621	1	violation	violation	1	X	3	face	male	1	0.7296652542427182
361.49178035091614	1	learning	nonviolation	3	A	53	scene	outdoor	1	0.6467324709519744
364.49174155574286	1	learning	nonviolation	3	B	53	scene	outdoor	1	0.5797721371054649
367.491700487677	1	learning	nonviolation	3	A	54	scene	outdoor	1	0.4648159872740507
370.4916626028717	1	learning	nonviolation	3	B	54	scene	outdoor	1	0.4928549779579043
373.4916237099096	1	violation	violation	5	A	4	scene	outdoor	1	0.4528960660099983
376.49157908977935	1	violation	violation	1	X	4	face	male	1	0.6749403029680252
379.49155914969737	1	learning	violation	3	A	7	scene	outdoor	1	0.5669575473293662
382.4914993797429	1	learning	violation	3	B	7	scene	outdoor	1	0.5410206881351769
385.49145466601476	1	restudy	nonviolation	5	B	49	scene	outdoor	1	0.5070695998147129
388.4914173539728	1	violation	violation	6	A	2	scene	indoor	1	0.5861009508371353
391.49137994972983	1	violation	violation	1	Y	2	face	female	1	0.6111371070146561
394.49134135106584	1	violation	violation	5	A	5	scene	indoor	0	0.5511808628216386
397.49129726504907	1	violation	violation	1	X	5	face	male	1	0.6851669028401375
400.49125590873876	1	restudy	violation	5	B	4	scene	outdoor	1	0.5462619671598077
403.49121822882444	1	learning	nonviolation	4	A	53	scene	outdoor	1	0.6853018291294575
406.49118266999716	1	learning	nonviolation	4	B	53	scene	outdoor	1	0.5653607640415429
409.49113536579534	1	learning	nonviolation	2	A	56	scene	indoor	1	0.9153504893183708
412.4911017119885	1	learning	nonviolation	2	B	56	scene	indoor	1	0.5554244667291641
415.491056736093	1	restudy	nonviolation	6	B	50	scene	indoor	1	0.5224694376811385
418.4910155199468	1	violation	violation	5	A	8	scene	outdoor	1	0.705519765149802
421.49097529891884	1	violation	violation	1	X	8	face	female	1	0.8065457800403237
424.49093206599366	1	restudy	nonviolation	6	B	49	scene	outdoor	1	0.5655906908214092
427.49090731376776	1	learning	nonviolation	3	A	55	scene	outdoor	1	0.5716238711029291
430.49085642071435	1	learning	nonviolation	3	B	55	scene	indoor	1	0.6526683252304792
433.4908121367917	1	violation	violation	5	A	6	scene	indoor	1	0.5547128710895777
436.4907787106931	1	violation	violation	1	X	6	face	female	1	0.8917443021200597
439.4907303368673	1	violation	violation	5	A	1	scene	outdoor	1	0.5427589989267291
442.49069097079337	1	violation	violation	1	X	1	face	female	1	0.7928354600444436
445.49066069675615	1	restudy	violation	5	B	5	scene	outdoor	1	0.6118727470748127
448.49061200488364	1	learning	nonviolation	4	A	54	scene	outdoor	1	0.5529150669462979
451.49058676883584	1	learning	nonviolation	4	B	54	scene	outdoor	1	0.736937050241977
454.4905337579549	1	violation	violation	6	A	4	scene	outdoor	1	0.597986547742039
457.49048975808546	1	violation	violation	1	Y	4	face	male	1	0.5270152557641268
460.4904517349787	1	restudy	violation	5	B	3	scene	outdoor	1	0.5750774778425694
463.49042132589966	1	learning	nonviolation	3	A	56	scene	indoor	1	0.5931120947934687
466.4903710349463	1	learning	nonviolation	3	B	56	scene	indoor	1	0.6661623409017919
469.49033046001574	1	restudy	violation	5	B	6	scene	indoor	1	0.5581549596972764
472.49029158987116	1	restudy	violation	6	B	2	scene	indoor	1	0.7372368178330362
475.49025706388056	1	restudy	violation	5	B	1	scene	indoor	1	0.5172716020606458
478.473531472031	1	learning	violation	4	A	7	scene	outdoor	1	0.7200047126971185
481.49016881687567	1	learning	violation	4	B	7	scene	outdoor	1	0.4823645181022584
484.4734521610663	1	violation	violation	6	A	5	scene	indoor	0	0.6130773467011751
487.4734118906781	1	violation	violation	1	Y	5	face	male	1	0.7711181263439357
490.4733719327487	1	violation	violation	6	A	3	scene	indoor	1	0.7411592700518668
493.4733325797133	1	violation	violation	1	Y	3	face	male	1	0.6301868092268705
496.47329647885635	1	restudy	nonviolation	5	B	53	scene	outdoor	1	1.1751628778874874
499.4732541660778	1	restudy	nonviolation	5	B	54	scene	outdoor	1	0.5222814418375492
502.4732146337629	1	restudy	violation	5	B	8	scene	indoor	1	0.5733362021856011
505.47316964296624	1	learning	nonviolation	4	A	55	scene	outdoor	1	0.5053673079237342
508.4731324897148	1	learning	nonviolation	4	B	55	scene	indoor	1	0.5354100209660828
511.47309450898314	1	violation	violation	6	A	1	scene	outdoor	1	0.5014406586997211
514.4730532360263	1	violation	violation	1	Y	1	face	female	1	0.8444805997423828
517.4730132226832	1	violation	violation	6	A	6	scene	indoor	1	0.557519257068634
520.472973302938	1	violation	violation	1	Y	6	face	female	1	0.6445603161118925
523.4729326008819	1	restudy	violation	6	B	4	scene	outdoor	1	0.4895723778754473
526.472890668083	1	restudy	nonviolation	6	B	54	scene	outdoor	1	0.390641198027879
529.4728523720987	1	violation	violation	5	A	7	scene	outdoor	1	0.5366919636726379
532.4728123457172	1	violation	violation	1	X	7	face	male	1	0.6737018553540111
535.4727750997989	1	violation	violation	6	A	8	scene	outdoor	1	0.5037651699967682
538.4727300098166	1	violation	violation	1	Y	8	face	female	1	0.6948032160289586
541.4726883401163	1	restudy	nonviolation	6	B	53	scene	outdoor	1	0.6078524608165026
544.4726495631039	1	learning	nonviolation	4	A	56	scene	indoor	1	0.6098144659772515
547.4726074896753	1	learning	nonviolation	4	B	56	scene	indoor	1	0.6489443462342024
550.4725669948384	1	restudy	nonviolation	5	B	55	scene	indoor	1	0.5579749308526516
553.4725312129593	1	restudy	violation	6	B	3	scene	outdoor	1	0.5440046000294387
556.4724875660613	1	restudy	violation	6	B	5	scene	outdoor	1	0.5920490697026253
559.4724473981187	1	restudy	nonviolation	5	B	56	scene	indoor	1	0.6860948698595166
562.472409627866	1	restudy	violation	5	B	7	scene	outdoor	1	0.5291327238082886
565.4723659879527	1	restudy	violation	6	B	8	scene	indoor	1	0.5721786320209503
568.4723274786958	1	restudy	violation	6	B	6	scene	indoor	1	0.5662089590914547
571.4722891896963	1	violation	violation	6	A	7	scene	outdoor	1	0.5152495722286403
574.472244461067	1	violation	violation	1	Y	7	face	male	1	0.7523007737472653
577.4722034246662	1	restudy	nonviolation	6	B	55	scene	indoor	1	0.5833333102054894
580.4721646779218	1	restudy	nonviolation	6	B	56	scene	indoor	1	0.6133905821479857
583.47212584503	1	restudy	violation	6	B	7	scene	outdoor	1	0.4793539210222662
586.4720827238634	1	restudy	violation	6	B	1	scene	indoor	1	0.4724390241317451
