onset	duration	trial_type	condition	repetition	pairmate	pairID	category	subcategory	response_accuracy	response_time
13.50591055402765	1	prelearning	nonviolation	1	A	78	scene	outdoor	1	0.4911717139766552
16.505879824020667	1	prelearning	nonviolation	1	A	74	scene	indoor	1	0.41020507499342784
19.505830503010657	1	prelearning	nonviolation	1	B	78	scene	indoor	1	0.40825201899860986
22.505796841025585	1	prelearning	violation	1	B	26	scene	outdoor	1	0.4772887969738804
25.505745883012423	1	prelearning	violation	1	A	25	scene	indoor	0	0.4633358790015336
28.505707010015612	1	prelearning	nonviolation	1	B	76	scene	outdoor	1	0.5323767160007264
31.50567034300184	1	prelearning	violation	1	B	28	scene	indoor	1	0.4644078050041571
34.50561640702654	1	prelearning	nonviolation	1	A	77	scene	outdoor	1	0.5024667489924468
37.50558503702632	1	prelearning	nonviolation	1	B	74	scene	indoor	1	0.5215037929883692
40.50554537700373	1	prelearning	nonviolation	1	A	79	scene	indoor	1	0.7625415430229623
43.50550716102589	1	prelearning	violation	1	B	32	scene	indoor	1	0.5325815319956746
46.5054695920262	1	prelearning	violation	1	B	27	scene	indoor	1	0.3715944869909436
49.505417198000934	1	prelearning	violation	1	B	30	scene	indoor	1	0.5126722700078972
52.505388528021285	1	prelearning	nonviolation	1	B	80	scene	indoor	1	0.8837010650022421
55.50534395102295	1	prelearning	violation	1	A	31	scene	indoor	1	0.3957438009965699
58.50530572800199	1	prelearning	violation	1	A	32	scene	outdoor	1	0.5097831870079972
61.505264838022406	1	prelearning	nonviolation	1	B	79	scene	indoor	1	1.0658230029803235
64.50523685500957	1	prelearning	nonviolation	1	B	77	scene	outdoor	1	0.5838510430185124
67.50518921299954	1	prelearning	violation	1	A	28	scene	indoor	1	0.5239027630013879
70.50515549001284	1	prelearning	nonviolation	1	B	73	scene	outdoor	n/a	n/a
73.50511100902804	1	prelearning	violation	1	A	29	scene	outdoor	1	0.5209778109856416
76.50506925900117	1	prelearning	violation	1	A	27	scene	indoor	1	0.465948492026655
79.50502903302551	1	prelearning	nonviolation	1	A	76	scene	outdoor	1	0.4610635979915969
82.50498259102459	1	prelearning	nonviolation	1	A	75	scene	indoor	1	0.4331060459953733
85.50494784701732	1	prelearning	violation	1	A	26	scene	outdoor	0	0.3811434230010491
88.5048996480182	1	prelearning	violation	1	B	29	scene	outdoor	1	0.4121896050055511
91.50485805101927	1	prelearning	violation	1	B	31	scene	outdoor	1	0.6092352489940822
94.50482471802387	1	prelearning	nonviolation	1	B	75	scene	outdoor	1	0.5842661549977493
97.50478237101923	1	prelearning	violation	1	B	25	scene	outdoor	1	0.5673124559980351
100.50474776900957	1	prelearning	violation	1	A	30	scene	outdoor	1	0.4463512880029157
103.50469677400541	1	prelearning	nonviolation	1	A	80	scene	outdoor	1	0.6553986720100511
106.50466165301624	1	prelearning	nonviolation	1	A	73	scene	indoor	1	0.612431782996282
109.50461909401928	1	learning	violation	2	A	25	scene	indoor	0	0.5104776090011001
112.50457317900144	1	learning	violation	2	B	25	scene	outdoor	1	0.5425241830234881
115.5045320050267	1	learning	violation	2	A	26	scene	outdoor	1	0.4175627799995709
118.5044958340004	1	learning	violation	2	B	26	scene	outdoor	1	0.4145980430184864
121.50445723702431	1	learning	nonviolation	2	A	73	scene	indoor	1	0.5266407860035542
124.50440999600687	1	learning	nonviolation	2	B	73	scene	outdoor	1	0.4796878740016837
127.50436871001148	1	learning	violation	2	A	27	scene	indoor	1	0.4777293739898596
130.50432629900752	1	learning	violation	2	B	27	scene	indoor	1	0.4507950310071465
133.50428106001345	1	learning	violation	2	A	28	scene	indoor	1	0.4118182400125079
136.50424286400084	1	learning	violation	2	B	28	scene	indoor	1	0.5088531540241092
139.5042138790013	1	learning	violation	2	A	29	scene	outdoor	0	0.5188863250077702
142.50415805901866	1	learning	violation	2	B	29	scene	outdoor	1	0.4309441249934025
145.5041260360158	1	learning	violation	3	A	26	scene	outdoor	1	0.4409757319954224
148.50408680702094	1	learning	violation	3	B	26	scene	outdoor	1	0.42000990698579704
151.50403916300274	1	learning	nonviolation	2	A	74	scene	indoor	1	0.5180619480088353
154.50400833500314	1	learning	nonviolation	2	B	74	scene	indoor	1	0.5380935930006672
157.5039557890268	1	learning	nonviolation	2	A	75	scene	indoor	1	0.5451466209779028
160.5039223820204	1	learning	nonviolation	2	B	75	scene	outdoor	1	0.6921760209952481
163.50388155700057	1	learning	violation	4	A	26	scene	outdoor	1	0.5012255860201549
166.50383464200422	1	learning	violation	4	B	26	scene	outdoor	1	0.5632691020146012
169.5037986540119	1	learning	violation	3	A	27	scene	indoor	1	0.7383010839985218
172.50374990401906	1	learning	violation	3	B	27	scene	indoor	0	0.7523595629900228
175.50371604901738	1	learning	violation	2	A	30	scene	outdoor	1	0.3883848130062688
178.5036733270099	1	learning	violation	2	B	30	scene	indoor	1	0.5764303460018709
181.5036216370063	1	learning	nonviolation	2	A	76	scene	outdoor	1	0.4984832300106064
184.50358261700603	1	learning	nonviolation	2	B	76	scene	outdoor	1	0.4725199690146837
187.503553085	1	learning	nonviolation	3	A	74	scene	indoor	1	0.5935545190004632
190.503502608015	1	learning	nonviolation	3	B	74	scene	indoor	1	0.5356132989982143
193.5034569510026	1	learning	violation	3	A	25	scene	indoor	0	0.6146506820223294
196.5034304170113	1	learning	violation	3	B	25	scene	outdoor	1	0.5726758509990759
199.5033846970182	1	learning	nonviolation	3	A	73	scene	indoor	1	0.5187217379861977
202.50333205302013	1	learning	nonviolation	3	B	73	scene	outdoor	1	0.8217733099882025
205.50329053102178	1	learning	violation	3	A	28	scene	indoor	1	0.6758186859951819
208.5032547110168	1	learning	violation	3	B	28	scene	indoor	1	0.5188550830062013
211.503210357012	1	learning	violation	2	A	31	scene	indoor	1	0.4078998769982718
214.50316799301072	1	learning	violation	2	B	31	scene	outdoor	1	0.5699501209892333
217.5031263860001	1	learning	nonviolation	3	A	75	scene	indoor	1	0.4649805690278299
220.50308820500504	1	learning	nonviolation	3	B	75	scene	outdoor	1	0.479022918996634
223.50305352802388	1	learning	violation	3	A	29	scene	outdoor	1	0.5380582369980402
226.50300527201037	1	learning	violation	3	B	29	scene	outdoor	1	0.4791039820120204
229.5029610590136	1	learning	nonviolation	3	A	76	scene	outdoor	1	1.0261516669997943
232.5029185770254	1	learning	nonviolation	3	B	76	scene	outdoor	1	0.5431944640004076
235.50288749602626	1	violation	violation	5	A	26	scene	outdoor	1	0.5392228039854672
238.50284106700562	1	violation	violation	1	X	26	face	male	1	0.4692716340068728
241.48611730302216	1	learning	violation	3	A	31	scene	indoor	1	0.5059920710045844
244.50275403400883	1	learning	violation	3	B	31	scene	outdoor	1	0.4653604860068299
247.486033971014	1	learning	violation	4	A	25	scene	indoor	0	0.4610809849982616
250.48599036902303	1	learning	violation	4	B	25	scene	outdoor	1	0.5751230649766512
253.50263196302691	1	learning	violation	4	A	28	scene	indoor	1	0.5554788699955681
256.50258820000454	1	learning	violation	4	B	28	scene	indoor	1	0.6405234390113037
259.50254291199957	1	learning	violation	4	A	27	scene	indoor	1	0.5825731570075732
262.48583618502016	1	learning	violation	4	B	27	scene	indoor	1	0.5832782179932111
265.4857968360011	1	violation	violation	5	A	25	scene	indoor	0	0.6153184720024001
268.48575018101843	1	violation	violation	1	X	25	face	male	1	0.5933664449839853
271.485710384004	1	restudy	violation	5	B	26	scene	outdoor	1	0.5684024390066043
274.4856717390066	1	learning	violation	3	A	30	scene	outdoor	1	1.0804419229971245
277.48562757801847	1	learning	violation	3	B	30	scene	indoor	1	0.5704995429841802
280.4855974300008	1	learning	nonviolation	4	A	74	scene	indoor	1	0.6605221930076368
283.4855609560036	1	learning	nonviolation	4	B	74	scene	indoor	1	0.6595555560197681
286.48550342902314	1	learning	nonviolation	4	A	75	scene	indoor	1	0.6186127259861678
289.48547291502473	1	learning	nonviolation	4	B	75	scene	outdoor	1	0.7566439739894122
292.48541845101863	1	learning	violation	4	A	29	scene	outdoor	1	0.5176829319971148
295.485376303026	1	learning	violation	4	B	29	scene	outdoor	1	0.5147437329869717
298.4853424850153	1	violation	violation	5	A	27	scene	indoor	1	0.8007768820098136
301.4853016230045	1	violation	violation	1	X	27	face	female	1	0.8038253099948633
304.4852520679997	1	restudy	nonviolation	5	B	75	scene	outdoor	1	0.519865728012519
307.48526057400164	1	learning	nonviolation	4	A	76	scene	outdoor	1	0.5708652590110432
310.4851802700141	1	learning	nonviolation	4	B	76	scene	outdoor	1	0.4969391709892079
313.48513138800627	1	learning	nonviolation	4	A	73	scene	indoor	1	0.4670049179985654
316.4850873870018	1	learning	nonviolation	4	B	73	scene	outdoor	1	0.9440334539976902
319.48504814101034	1	violation	violation	6	A	26	scene	outdoor	1	0.6490765250055119
322.48500476701884	1	violation	violation	1	Y	26	face	male	1	0.5321162059844937
325.4849664540088	1	violation	violation	5	A	28	scene	indoor	1	0.6171593890176155
328.48491962102713	1	violation	violation	1	X	28	face	female	1	0.6532076689763926
331.48487969601416	1	learning	nonviolation	2	A	77	scene	outdoor	1	0.4942453140101861
334.4848358760064	1	learning	nonviolation	2	B	77	scene	outdoor	1	0.7312848950095941
337.48480137402663	1	restudy	nonviolation	5	B	74	scene	indoor	1	0.6913235149986576
340.4847655190097	1	learning	violation	4	A	30	scene	outdoor	1	0.4963591610139702
343.48472329101065	1	learning	violation	4	B	30	scene	indoor	1	0.5283965039998293
346.48468197701726	1	violation	violation	5	A	29	scene	outdoor	1	0.7334402310079895
349.4846346680133	1	violation	violation	1	X	29	face	male	1	0.5914957030036021
352.4845905700058	1	restudy	violation	5	B	25	scene	outdoor	1	0.7635428259964101
355.48454768001096	1	learning	violation	4	A	31	scene	indoor	1	0.4535773660172708
358.4845159430115	1	learning	violation	4	B	31	scene	outdoor	1	0.461608798999805
361.4844828340283	1	restudy	violation	5	B	27	scene	indoor	1	0.4956431679893285
364.4844196610211	1	restudy	violation	5	B	29	scene	outdoor	1	0.6007054799993057
367.484388300014	1	restudy	nonviolation	6	B	75	scene	outdoor	1	0.4967486269888468
370.4843352340104	1	restudy	nonviolation	6	B	74	scene	indoor	1	0.4597920050146058
373.48429933600715	1	violation	violation	5	A	30	scene	outdoor	1	0.4988285409926903
376.4842588170141	1	violation	violation	1	X	30	face	female	1	0.7418706130119972
379.4842229500064	1	violation	violation	6	A	25	scene	indoor	1	0.4769090810150374
382.48417060301284	1	violation	violation	1	Y	25	face	male	1	0.4869609480083454
385.4841610870208	1	restudy	nonviolation	5	B	76	scene	outdoor	1	0.4719844879873562
388.48408398602623	1	violation	violation	6	A	27	scene	indoor	1	0.5210460629896261
391.48404748400213	1	violation	violation	1	Y	27	face	female	1	0.4660821440047585
394.4840012860077	1	restudy	nonviolation	5	B	73	scene	outdoor	0	0.3921267999976408
397.48396551600314	1	learning	violation	2	A	32	scene	outdoor	1	0.3641688820207492
400.48393077900977	1	learning	violation	2	B	32	scene	indoor	1	0.4722082529915497
403.4838881890173	1	learning	nonviolation	2	A	78	scene	outdoor	1	0.4482472759846132
406.483848221018	1	learning	nonviolation	2	B	78	scene	indoor	1	0.5402832010004204
409.48380963201635	1	restudy	violation	6	B	26	scene	outdoor	1	0.6253216440090911
412.48376306000864	1	learning	nonviolation	2	A	79	scene	indoor	1	0.44337290700059373
415.4837211100094	1	learning	nonviolation	2	B	79	scene	indoor	1	0.8744144279917236
418.48366944500594	1	restudy	violation	5	B	28	scene	indoor	1	0.4994666849961504
421.48363710101694	1	learning	nonviolation	3	A	77	scene	outdoor	1	0.4725077019829769
424.48358980301424	1	learning	nonviolation	3	B	77	scene	outdoor	1	0.783548025006894
427.4835552630248	1	learning	violation	3	A	32	scene	outdoor	1	0.4575873400026466
430.4835057870077	1	learning	violation	3	B	32	scene	indoor	1	0.5166272460191976
433.4834799820092	1	learning	nonviolation	3	A	79	scene	indoor	1	0.5716540650173556
436.48342941200826	1	learning	nonviolation	3	B	79	scene	indoor	1	0.4327058810158633
439.48339051700896	1	learning	nonviolation	2	A	80	scene	outdoor	1	0.5277467179985251
442.48334354400873	1	learning	nonviolation	2	B	80	scene	indoor	1	0.4077923590084538
445.4832968400151	1	learning	nonviolation	4	A	77	scene	outdoor	1	0.4078706270083785
448.48325556601054	1	learning	nonviolation	4	B	77	scene	outdoor	1	0.6038811650068965
451.4832142650266	1	restudy	violation	6	B	25	scene	outdoor	1	0.374928518984234
454.48317043701536	1	violation	violation	5	A	31	scene	indoor	1	0.4759710470098071
457.4831273120071	1	violation	violation	1	X	31	face	male	1	0.7290099350211676
460.4831032640068	1	learning	nonviolation	3	A	78	scene	outdoor	1	0.8270404390059412
463.48304694701795	1	learning	nonviolation	3	B	78	scene	indoor	1	0.5471006119914819
466.4830048069998	1	violation	violation	6	A	29	scene	outdoor	1	0.4241640950203873
469.48296179602033	1	violation	violation	1	Y	29	face	male	1	0.4451792089967057
472.4829219960084	1	restudy	violation	5	B	30	scene	indoor	1	0.5882180000189692
475.4828848100151	1	violation	violation	6	A	28	scene	indoor	0	0.7412555250048172
478.48284405301087	1	violation	violation	1	Y	28	face	female	0	0.5403092470078263
481.48279348900536	1	restudy	violation	6	B	27	scene	indoor	1	0.44334982000873424
484.48275684201514	1	learning	violation	4	A	32	scene	outdoor	1	0.4903857359895482
487.4827087810263	1	learning	violation	4	B	32	scene	indoor	1	0.4924386299971957
490.4826655320066	1	restudy	nonviolation	6	B	76	scene	outdoor	1	0.5024815050128382
493.48262525902834	1	learning	nonviolation	3	A	80	scene	outdoor	1	0.7485215209890157
496.4825865770108	1	learning	nonviolation	3	B	80	scene	indoor	1	0.4935569190129172
499.48254728800384	1	restudy	nonviolation	6	B	73	scene	outdoor	1	0.5355991719989106
502.482498147001	1	restudy	violation	6	B	28	scene	indoor	1	0.507656454021344
505.4824580570275	1	learning	nonviolation	4	A	80	scene	outdoor	1	0.6126886979909614
508.48241441202117	1	learning	nonviolation	4	B	80	scene	indoor	1	0.7407415869820397
511.4823860630277	1	restudy	violation	6	B	29	scene	outdoor	n/a	n/a
514.4823299250274	1	learning	nonviolation	4	A	79	scene	indoor	0	0.4848183979920577
517.482289571024	1	learning	nonviolation	4	B	79	scene	indoor	1	0.5188539880036842
520.4822599340114	1	restudy	violation	5	B	31	scene	outdoor	1	0.5178018709993921
523.4822054670076	1	violation	violation	5	A	32	scene	outdoor	1	0.5779444850049913
526.482175858022	1	violation	violation	1	X	32	face	female	1	0.7399701119866222
529.4821205440094	1	learning	nonviolation	4	A	78	scene	outdoor	0	0.4490247289941181
532.4820915890159	1	learning	nonviolation	4	B	78	scene	indoor	1	0.5470531200116966
535.4820400400204	1	restudy	nonviolation	5	B	80	scene	indoor	1	0.7231075080053415
538.4819962820038	1	restudy	nonviolation	5	B	79	scene	indoor	1	0.5671504570054822
541.4819544019992	1	restudy	nonviolation	5	B	77	scene	outdoor	1	0.5541947250021622
544.4819120510074	1	restudy	nonviolation	6	B	80	scene	indoor	1	0.5972402740153484
547.4818724210201	1	restudy	violation	5	B	32	scene	indoor	1	0.5962779340043198
550.4818285310175	1	restudy	nonviolation	5	B	78	scene	indoor	n/a	n/a
553.4817869570106	1	violation	violation	6	A	30	scene	outdoor	1	1.0443663180049043
556.4817580690142	1	violation	violation	1	Y	30	face	female	1	0.5063963499851525
559.4817037760222	1	restudy	nonviolation	6	B	77	scene	outdoor	1	0.5594541349855717
562.4816652860027	1	violation	violation	6	A	32	scene	outdoor	1	0.4654870360100176
565.4816176840104	1	violation	violation	1	Y	32	face	female	1	0.7435393710038625
568.4815764110244	1	restudy	violation	6	B	30	scene	indoor	1	0.4915744029858615
571.481544949027	1	restudy	nonviolation	6	B	78	scene	indoor	1	0.6496320749865845
574.4815046560252	1	violation	violation	6	A	31	scene	indoor	1	0.4646498569927644
577.4814501490036	1	violation	violation	1	Y	31	face	male	1	0.7027039469976444
580.4814083790117	1	restudy	violation	6	B	32	scene	indoor	0	0.9237422790029086
583.4813707920257	1	restudy	nonviolation	6	B	79	scene	indoor	1	0.3827927769743837
586.4813283730183	1	restudy	violation	6	B	31	scene	outdoor	1	0.4028308840061072
