onset	duration	trial_type	condition	repetition	pairmate	pairID	category	subcategory	response_accuracy	response_time
13.498373693000305	1	prelearning	nonviolation	1	A	58	scene	indoor	1	0.6775231349997739
16.49832728399997	1	prelearning	nonviolation	1	B	61	scene	outdoor	1	0.5266218920000938
19.49828763000005	1	prelearning	nonviolation	1	A	60	scene	indoor	1	0.4936673820002397
22.49824751400001	1	prelearning	nonviolation	1	B	64	scene	indoor	1	0.5667071560001204
25.498207436000033	1	prelearning	nonviolation	1	B	60	scene	outdoor	1	0.5647400940001717
28.498165894000074	1	prelearning	violation	1	A	15	scene	indoor	1	0.5037987569999132
31.498128925999932	1	prelearning	nonviolation	1	B	58	scene	outdoor	1	0.6678426860003128
34.49808729400001	1	prelearning	nonviolation	1	A	57	scene	outdoor	1	0.5178672390002248
37.4980471230001	1	prelearning	nonviolation	1	A	59	scene	outdoor	1	0.5959050880001087
40.49800719800032	1	prelearning	violation	1	A	12	scene	outdoor	1	0.8249433149999277
43.49796694900033	1	prelearning	nonviolation	1	B	57	scene	indoor	1	0.6719895969999925
46.497927074000025	1	prelearning	violation	1	A	11	scene	outdoor	1	0.4690268399999695
49.4978868180001	1	prelearning	violation	1	B	13	scene	outdoor	1	0.5170681810000133
52.497846414000385	1	prelearning	violation	1	B	11	scene	outdoor	1	0.4811168239998551
55.497806654000215	1	prelearning	nonviolation	1	A	64	scene	outdoor	1	0.5331483840000146
58.497766007000344	1	prelearning	nonviolation	1	B	62	scene	indoor	1	0.5942005839997364
61.497725917000025	1	prelearning	violation	1	B	12	scene	indoor	1	0.5842289960000926
64.49768382399998	1	prelearning	nonviolation	1	A	63	scene	indoor	1	0.602279498000371
67.49764307600026	1	prelearning	violation	1	B	15	scene	indoor	1	0.5593209559997376
70.49760304600022	1	prelearning	violation	1	B	10	scene	indoor	1	0.5763466019998305
73.49756298500007	1	prelearning	violation	1	B	9	scene	outdoor	1	0.4933920530002069
76.49752247800006	1	prelearning	violation	1	A	13	scene	indoor	1	0.6064394370000628
79.49748989199999	1	prelearning	nonviolation	1	B	59	scene	outdoor	1	0.5784661780003262
82.49744659500037	1	prelearning	violation	1	A	10	scene	outdoor	1	0.6955078559999492
85.49740351500031	1	prelearning	violation	1	A	16	scene	indoor	1	0.6085574899998392
88.49736289800012	1	prelearning	violation	1	A	14	scene	outdoor	1	0.7275987940001869
91.49732263400028	1	prelearning	nonviolation	1	B	63	scene	indoor	1	0.8726336949998768
94.49728053800028	1	prelearning	nonviolation	1	A	62	scene	indoor	1	0.531631673999982
97.49724146800007	1	prelearning	violation	1	B	14	scene	outdoor	1	0.5557234120001341
100.49720096600004	1	prelearning	violation	1	A	9	scene	indoor	1	0.5347601100002066
103.49716058500007	1	prelearning	violation	1	B	16	scene	indoor	1	0.4257975989999068
106.49712025300005	1	prelearning	nonviolation	1	A	61	scene	outdoor	1	0.4848433279998972
109.49707942300027	1	learning	nonviolation	2	A	57	scene	outdoor	1	0.4448988419999296
112.49703871400015	1	learning	nonviolation	2	B	57	scene	indoor	1	0.5809492980001778
115.4969976810003	1	learning	violation	2	A	9	scene	indoor	1	0.5339742529999967
118.49695727400012	1	learning	violation	2	B	9	scene	outdoor	1	0.5760054620000119
121.49691488500002	1	learning	violation	2	A	10	scene	outdoor	1	0.4420602370000779
124.49687468200001	1	learning	violation	2	B	10	scene	indoor	1	0.5310890730002029
127.49683544800018	1	learning	violation	2	A	11	scene	outdoor	1	0.4531367609997688
130.49679507500014	1	learning	violation	2	B	11	scene	outdoor	1	0.3960983729998589
133.49675419200005	1	learning	violation	2	A	12	scene	outdoor	1	0.4592089689999739
136.49671194100029	1	learning	violation	2	B	12	scene	indoor	1	0.4382586619999529
139.49667316100022	1	learning	nonviolation	2	A	58	scene	indoor	1	0.5052961430001233
142.49663236400008	1	learning	nonviolation	2	B	58	scene	outdoor	1	0.4403374359999361
145.4965915810003	1	learning	violation	2	A	13	scene	indoor	1	0.5133053509998717
148.49654850800016	1	learning	violation	2	B	13	scene	outdoor	1	0.39143395500013867
151.49650964500006	1	learning	violation	3	A	11	scene	outdoor	1	0.4425351260001662
154.49646859500038	1	learning	violation	3	B	11	scene	outdoor	1	0.4714999089997036
157.49642843400034	1	learning	nonviolation	3	A	57	scene	outdoor	1	0.6185365639998963
160.49638767900024	1	learning	nonviolation	3	B	57	scene	indoor	1	0.5055795180001041
163.49634711499994	1	learning	violation	2	A	14	scene	outdoor	1	0.498620327000026
166.49630590900006	1	learning	violation	2	B	14	scene	outdoor	1	0.528595554000276
169.49626533000037	1	learning	violation	3	A	12	scene	outdoor	1	0.4465682589998323
172.49623040200004	1	learning	violation	3	B	12	scene	indoor	1	0.5217501800002537
175.4961831730002	1	learning	nonviolation	2	A	59	scene	outdoor	1	0.4597955210001601
178.49614242300004	1	learning	nonviolation	2	B	59	scene	outdoor	1	0.5448362740003176
181.49610159100033	1	learning	violation	3	A	10	scene	outdoor	1	0.4888672560000487
184.49606049500017	1	learning	violation	3	B	10	scene	indoor	1	0.528914936000092
187.49601813600017	1	learning	nonviolation	2	A	60	scene	indoor	1	0.4539739329998156
190.49597685800015	1	learning	nonviolation	2	B	60	scene	outdoor	1	0.4728833059998578
193.4959373890001	1	learning	nonviolation	2	A	61	scene	outdoor	1	0.4250387170000067
196.495896897	1	learning	nonviolation	2	B	61	scene	outdoor	1	0.5410787270002402
199.49585533800015	1	learning	violation	2	A	15	scene	indoor	0	0.4711151800001971
202.49581643200008	1	learning	violation	2	B	15	scene	indoor	1	0.5391605610002443
205.4957737580003	1	learning	nonviolation	3	A	58	scene	indoor	1	0.5222182079996855
208.49573252400023	1	learning	nonviolation	3	B	58	scene	outdoor	1	0.4342394889999923
211.49569191	1	learning	violation	3	A	14	scene	outdoor	1	0.5482811660003789
214.49564888900025	1	learning	violation	3	B	14	scene	outdoor	1	0.9303472550000152
217.4956098540001	1	learning	violation	4	A	10	scene	outdoor	1	0.4933749329998136
220.49556871299998	1	learning	violation	4	B	10	scene	indoor	1	0.5564088380001522
223.49553403100026	1	learning	violation	3	A	9	scene	indoor	1	0.4835417189997315
226.49548676500038	1	learning	violation	3	B	9	scene	outdoor	1	0.6545046909996017
229.4954456720002	1	learning	nonviolation	3	A	60	scene	indoor	1	0.4934507389998544
232.49540457300012	1	learning	nonviolation	3	B	60	scene	outdoor	1	0.523581938999996
235.49536310200028	1	learning	nonviolation	4	A	57	scene	outdoor	1	0.4965438049998738
238.49532090099999	1	learning	nonviolation	4	B	57	scene	indoor	1	0.5376588910003193
241.4952795600002	1	learning	violation	3	A	13	scene	indoor	1	0.4727016749998256
244.49524051900016	1	learning	violation	3	B	13	scene	outdoor	1	0.427736436000032
247.49519860400002	1	learning	nonviolation	4	A	60	scene	indoor	1	0.4228046060002271
250.49515746299994	1	learning	nonviolation	4	B	60	scene	outdoor	1	0.5918232900003204
253.4951171590001	1	learning	violation	4	A	11	scene	outdoor	1	0.5368755200001942
256.49507608600015	1	learning	violation	4	B	11	scene	outdoor	1	0.6749060820002342
259.49503492500025	1	learning	nonviolation	3	A	61	scene	outdoor	1	0.4449535270000524
262.49499380000003	1	learning	nonviolation	3	B	61	scene	outdoor	1	0.5990042800003721
265.49494951099996	1	learning	violation	4	A	9	scene	indoor	1	0.6620425500000238
268.4949115060004	1	learning	violation	4	B	9	scene	outdoor	1	0.5180747089998476
271.4948698590001	1	learning	violation	3	A	15	scene	indoor	1	0.5741216740002528
274.4948285800001	1	learning	violation	3	B	15	scene	indoor	1	0.5481571529999201
277.494787484	1	learning	violation	4	A	13	scene	indoor	1	0.4621927400003187
280.49474669200026	1	learning	violation	4	B	13	scene	outdoor	1	0.4961356099997829
283.49470358599996	1	learning	nonviolation	3	A	59	scene	outdoor	1	0.5182881380001163
286.49466390900034	1	learning	nonviolation	3	B	59	scene	outdoor	1	0.6093214999996235
289.4946213770004	1	learning	violation	4	A	12	scene	outdoor	1	0.5843607859997064
292.49458218900014	1	learning	violation	4	B	12	scene	indoor	1	0.5454022879998774
295.4945409480001	1	learning	violation	4	A	14	scene	outdoor	1	0.473446714000147
298.49449951099996	1	learning	violation	4	B	14	scene	outdoor	1	0.4834940590003498
301.494459218	1	learning	nonviolation	4	A	58	scene	indoor	1	0.486528570000246
304.4944161620001	1	learning	nonviolation	4	B	58	scene	outdoor	1	0.4885731260001194
307.494376137	1	violation	violation	5	A	9	scene	indoor	1	0.4386140589999741
310.49433266000005	1	violation	violation	1	X	9	face	male	1	0.7586525120000258
313.4942932730001	1	learning	nonviolation	4	A	61	scene	outdoor	1	0.4736949230000391
316.49425021800016	1	learning	nonviolation	4	B	61	scene	outdoor	1	0.5737410920000912
319.4942113750003	1	restudy	nonviolation	5	B	57	scene	indoor	1	0.4637959649999175
322.494169783	1	violation	violation	5	A	10	scene	outdoor	1	0.4438167190000968
325.49412885100037	1	violation	violation	1	X	10	face	female	1	0.6278683890000138
328.494087434	1	learning	violation	2	A	16	scene	indoor	1	0.5609118560000752
331.4940444160002	1	learning	violation	2	B	16	scene	indoor	1	0.556953582999995
334.49400484900025	1	violation	violation	5	A	13	scene	indoor	1	0.5269865239997671
337.49396344800016	1	violation	violation	1	X	13	face	male	1	0.6210368130000461
340.493922355	1	violation	violation	5	A	14	scene	outdoor	1	0.743948943000305
343.4938783970001	1	violation	violation	1	X	14	face	male	1	0.5961176119999436
346.493840008	1	restudy	violation	5	B	9	scene	outdoor	1	0.5291494180000882
349.4937976790002	1	restudy	violation	5	B	10	scene	indoor	1	0.6061961649998011
352.49375801700035	1	violation	violation	5	A	11	scene	outdoor	1	0.5232387849996485
355.4937163730001	1	violation	violation	1	X	11	face	male	1	0.6552782260000639
358.49367565500006	1	violation	violation	5	A	12	scene	outdoor	1	0.5322333250001066
361.49363384000026	1	violation	violation	1	X	12	face	female	1	0.4474244200000612
364.49359274700015	1	restudy	nonviolation	5	B	60	scene	outdoor	1	0.50240635199998
367.4935517040003	1	violation	violation	6	A	10	scene	outdoor	1	0.5154547560000537
370.49350681400034	1	violation	violation	1	Y	10	face	female	1	0.6334980950000499
373.493469255	1	learning	violation	4	A	15	scene	indoor	1	0.5385289700002431
376.49342782800016	1	learning	violation	4	B	15	scene	indoor	1	0.5455736929998238
379.4933864620002	1	restudy	violation	5	B	14	scene	outdoor	1	0.38164487499989264
382.4933445870002	1	restudy	violation	6	B	10	scene	indoor	1	0.5666593539999667
385.4933043830001	1	learning	nonviolation	4	A	59	scene	outdoor	1	0.7067121549998774
388.49326057100006	1	learning	nonviolation	4	B	59	scene	outdoor	1	0.5377372100001594
391.493221483	1	learning	violation	3	A	16	scene	indoor	1	0.6487946330003069
394.4931802420001	1	learning	violation	3	B	16	scene	indoor	1	0.4828247589998682
397.4931390680004	1	violation	violation	5	A	15	scene	indoor	1	0.5038613409997197
400.49310035900004	1	violation	violation	1	X	15	face	female	1	0.5139071260000492
403.4930564230003	1	learning	nonviolation	2	A	62	scene	indoor	1	0.5499502499997106
406.493015002	1	learning	nonviolation	2	B	62	scene	indoor	1	0.5789878069999759
409.4929721370004	1	restudy	nonviolation	5	B	58	scene	outdoor	1	0.5620250160000069
412.4929314370002	1	restudy	nonviolation	5	B	61	scene	outdoor	1	0.4710754170000655
415.49289142700036	1	restudy	nonviolation	6	B	57	scene	indoor	1	0.5321070079999117
418.4928502110001	1	violation	violation	6	A	9	scene	indoor	1	0.5841617290002432
421.49280851599997	1	violation	violation	1	Y	9	face	male	1	0.7501995000002353
424.49276741	1	restudy	violation	5	B	13	scene	outdoor	1	0.5352815000001101
427.47605918	1	restudy	violation	5	B	15	scene	indoor	1	0.5849459790001674
430.476016352	1	restudy	violation	5	B	12	scene	indoor	1	0.5460104000003412
433.4926420230004	1	restudy	nonviolation	6	B	60	scene	outdoor	1	0.4123599539998395
436.4926029000003	1	restudy	nonviolation	5	B	59	scene	outdoor	1	0.6014187480000146
439.4925589640002	1	learning	nonviolation	2	A	63	scene	indoor	1	0.5514540879999004
442.49251941500006	1	learning	nonviolation	2	B	63	scene	indoor	1	0.5574921050001649
445.47580943400004	1	restudy	violation	5	B	11	scene	outdoor	1	0.7031949110000824
448.475767936	1	violation	violation	6	A	14	scene	outdoor	1	0.6131659490001766
451.4757292960003	1	violation	violation	1	Y	14	face	male	1	0.626292834999731
454.47568681800016	1	learning	nonviolation	2	A	64	scene	outdoor	1	0.5051791370001409
457.47564410300043	1	learning	nonviolation	2	B	64	scene	indoor	1	0.5923620409998875
460.4756025490001	1	violation	violation	6	A	11	scene	outdoor	1	0.6124023070001385
463.49223071000006	1	violation	violation	1	Y	11	face	male	1	0.6537778900001285
466.47552410900016	1	restudy	nonviolation	6	B	58	scene	outdoor	1	0.6404865190002056
469.475482118	1	violation	violation	6	A	15	scene	indoor	1	0.5645233270001881
472.475440744	1	violation	violation	1	Y	15	face	female	1	0.5325727029999143
475.47539943100037	1	learning	violation	4	A	16	scene	indoor	1	0.4826360759998352
478.475358661	1	learning	violation	4	B	16	scene	indoor	1	0.5066652120003711
481.47531677800004	1	learning	nonviolation	3	A	64	scene	outdoor	1	0.525695652000195
484.47527551500025	1	learning	nonviolation	3	B	64	scene	indoor	1	0.597763988999759
487.4752341980002	1	restudy	nonviolation	6	B	61	scene	outdoor	1	0.5637813759999517
490.475193321	1	learning	nonviolation	3	A	62	scene	indoor	1	0.6718183060002048
493.47515136800035	1	learning	nonviolation	3	B	62	scene	indoor	1	0.5338704089999737
496.47511028000014	1	restudy	violation	6	B	9	scene	outdoor	1	0.5239018800002668
499.4750686030002	1	learning	nonviolation	4	A	64	scene	outdoor	1	0.5309657029997652
502.47502756700027	1	learning	nonviolation	4	B	64	scene	indoor	1	0.5879835269997784
505.4749862180002	1	violation	violation	6	A	13	scene	indoor	1	0.5240268510001442
508.4749448750004	1	violation	violation	1	Y	13	face	male	1	0.7680711569996674
511.474901563	1	restudy	nonviolation	6	B	59	scene	outdoor	1	0.5501173380002911
514.4748623650003	1	learning	nonviolation	4	A	62	scene	indoor	1	0.5331509150000784
517.4748209160002	1	learning	nonviolation	4	B	62	scene	indoor	1	0.6161964269999771
520.4747796650004	1	restudy	violation	6	B	14	scene	outdoor	1	0.5471624889996747
523.4747380100001	1	learning	nonviolation	3	A	63	scene	indoor	1	0.521285232000082
526.4746968220002	1	learning	nonviolation	3	B	63	scene	indoor	1	0.5073462770001242
529.4746556530005	1	violation	violation	6	A	12	scene	outdoor	0	0.7663865869999427
532.4746177530001	1	violation	violation	1	Y	12	face	female	1	0.6243981050001821
535.4745730990003	1	violation	violation	5	A	16	scene	indoor	1	0.5214438879997942
538.4745317969999	1	violation	violation	1	X	16	face	female	1	0.6624870099999498
541.4744903530001	1	restudy	nonviolation	5	B	64	scene	indoor	1	0.5505240320003395
544.4744484760004	1	learning	nonviolation	4	A	63	scene	indoor	1	0.5765730299999632
547.4744074700002	1	learning	nonviolation	4	B	63	scene	indoor	1	0.4726168930001222
550.4743661970001	1	restudy	violation	5	B	16	scene	indoor	1	0.5706574890000411
553.474324883	1	restudy	violation	6	B	11	scene	outdoor	1	0.4646913850001511
556.4742835770003	1	restudy	nonviolation	5	B	63	scene	indoor	1	0.4807582240000556
559.4742423580001	1	restudy	violation	6	B	13	scene	outdoor	1	0.5537821309999345
562.4742001950003	1	restudy	violation	6	B	15	scene	indoor	1	0.474826980999751
565.4741594050001	1	restudy	violation	6	B	12	scene	indoor	1	0.5698726380001062
568.4741182990001	1	restudy	nonviolation	5	B	62	scene	indoor	1	0.5289070320000064
571.4740768199998	1	violation	violation	6	A	16	scene	indoor	1	0.4609416910002437
574.474036394	1	violation	violation	1	Y	16	face	female	1	0.5609822440001153
577.473992188	1	restudy	nonviolation	6	B	64	scene	indoor	1	0.5500337500002388
580.473951816	1	restudy	nonviolation	6	B	63	scene	indoor	1	0.4960630180003136
583.4739097010001	1	restudy	violation	6	B	16	scene	indoor	1	0.490191698000217
586.4738677150002	1	restudy	nonviolation	6	B	62	scene	indoor	1	0.4661566499999026
