onset	duration	trial_type	condition	repetition	pairmate	pairID	category	subcategory	response_accuracy	response_time
13.512296967999644	1	prelearning	violation	1	A	21	scene	indoor	1	0.628812229000232
16.512259012999948	1	prelearning	nonviolation	1	B	65	scene	outdoor	1	0.5058561699997881
19.512219252999785	1	prelearning	violation	1	B	21	scene	indoor	1	0.4409013310000773
22.5121789169998	1	prelearning	violation	1	B	19	scene	outdoor	1	0.5899426870000752
25.512139068999662	1	prelearning	violation	1	A	20	scene	indoor	1	0.5399692210003195
28.512096752999696	1	prelearning	violation	1	A	17	scene	indoor	1	0.5210221980000824
31.51205614599985	1	prelearning	nonviolation	1	B	68	scene	outdoor	1	0.6551174259998334
34.512016870000025	1	prelearning	nonviolation	1	B	72	scene	indoor	1	0.5661015030000272
37.511977518999636	1	prelearning	violation	1	B	20	scene	indoor	1	0.5071448360004069
40.511938696000016	1	prelearning	violation	1	A	19	scene	outdoor	1	0.4501462329999413
43.51189720999992	1	prelearning	nonviolation	1	A	70	scene	outdoor	1	0.5352250619998813
46.51185486599979	1	prelearning	nonviolation	1	B	66	scene	outdoor	1	0.8162589789999402
49.5118172489997	1	prelearning	nonviolation	1	A	71	scene	indoor	1	0.5693003030000909
52.51177355699974	1	prelearning	violation	1	A	23	scene	indoor	1	0.5873688639999273
55.5117366469999	1	prelearning	violation	1	A	24	scene	outdoor	1	0.5553422269999828
58.51169594399971	1	prelearning	nonviolation	1	A	72	scene	indoor	1	0.6864264139999251
61.51165508399981	1	prelearning	nonviolation	1	B	67	scene	outdoor	1	0.4784075120001034
64.51161502399964	1	prelearning	violation	1	A	22	scene	outdoor	1	0.5345027830003346
67.51157521599997	1	prelearning	nonviolation	1	A	69	scene	outdoor	1	0.5666223859998354
70.51153477199978	1	prelearning	violation	1	A	18	scene	outdoor	1	0.5305821580000156
73.51149382899985	1	prelearning	nonviolation	1	B	70	scene	indoor	1	0.5706226749998677
76.5114505729998	1	prelearning	nonviolation	1	A	68	scene	indoor	1	0.5576523499998984
79.51141245300005	1	prelearning	violation	1	B	23	scene	outdoor	1	0.5437174859998777
82.51137160200004	1	prelearning	violation	1	B	24	scene	outdoor	1	0.5077557049999086
85.51133228399976	1	prelearning	nonviolation	1	B	71	scene	indoor	1	0.5807042740002544
88.51129086499986	1	prelearning	violation	1	B	22	scene	indoor	1	0.8078361829998357
91.51125169599982	1	prelearning	violation	1	B	18	scene	indoor	1	0.5958723650001048
94.51121039799999	1	prelearning	nonviolation	1	A	67	scene	outdoor	1	0.7259157579997009
97.51117019899992	1	prelearning	nonviolation	1	A	65	scene	outdoor	1	0.5638770149998891
100.51112911899963	1	prelearning	nonviolation	1	A	66	scene	indoor	1	0.5349957910002558
103.51108772499992	1	prelearning	nonviolation	1	B	69	scene	indoor	1	0.573038170000018
106.51104757899977	1	prelearning	violation	1	B	17	scene	outdoor	1	0.5411054490000424
109.49434192699982	1	learning	nonviolation	2	A	65	scene	outdoor	1	0.546713512000224
112.51096870799984	1	learning	nonviolation	2	B	65	scene	outdoor	1	0.4491561529998762
115.51092345200004	1	learning	violation	2	A	17	scene	indoor	1	0.5772050549999221
118.51088437399994	1	learning	violation	2	B	17	scene	outdoor	1	0.6622484079998685
121.49417616399978	1	learning	violation	2	A	18	scene	outdoor	1	0.477949652999996
124.49413496499984	1	learning	violation	2	B	18	scene	indoor	1	0.5879888740000752
127.51076255099994	1	learning	violation	2	A	19	scene	outdoor	1	0.50838671099973
130.49405781899986	1	learning	violation	2	B	19	scene	outdoor	1	0.5250866769997629
133.49401171499994	1	learning	nonviolation	2	A	66	scene	indoor	1	0.8981125589998555
136.49397087499986	1	learning	nonviolation	2	B	66	scene	outdoor	1	0.4881638890001341
139.49393071299983	1	learning	violation	2	A	20	scene	indoor	1	0.5911945580000975
142.49388989	1	learning	violation	2	B	20	scene	indoor	1	0.5631562619996657
145.493882105	1	learning	nonviolation	3	A	65	scene	outdoor	1	0.463171943999896
148.4938091859999	1	learning	nonviolation	3	B	65	scene	outdoor	1	0.5773262560001058
151.49377803399966	1	learning	nonviolation	2	A	67	scene	outdoor	1	0.5713487070001975
154.49373284600006	1	learning	nonviolation	2	B	67	scene	outdoor	1	0.5823983539999062
157.49368890000005	1	learning	violation	3	A	19	scene	outdoor	1	0.4094450889997461
160.4936484239997	1	learning	violation	3	B	19	scene	outdoor	1	0.559480060000169
163.49360701699968	1	learning	violation	2	A	21	scene	indoor	1	0.5034943230002682
166.4935661320001	1	learning	violation	2	B	21	scene	indoor	1	0.4335089109999899
169.49352530199982	1	learning	nonviolation	2	A	68	scene	indoor	1	0.5736029489999055
172.49348635399974	1	learning	nonviolation	2	B	68	scene	outdoor	1	0.5176620800002638
175.49344335599972	1	learning	nonviolation	2	A	69	scene	outdoor	1	0.4726910839999618
178.49340244099994	1	learning	nonviolation	2	B	69	scene	indoor	1	0.6057523320000655
181.49336173599977	1	learning	violation	2	A	22	scene	outdoor	1	0.5597797000000355
184.493318543	1	learning	violation	2	B	22	scene	indoor	1	0.5258329469997989
187.49327965999962	1	learning	violation	3	A	21	scene	indoor	1	0.5138388020000093
190.49323870999982	1	learning	violation	3	B	21	scene	indoor	1	0.5159054900000228
193.49319816299976	1	learning	nonviolation	4	A	65	scene	outdoor	1	0.4489406140000938
196.493158153	1	learning	nonviolation	4	B	65	scene	outdoor	1	0.5659935949997816
199.493115967	1	learning	violation	3	A	17	scene	indoor	1	0.551024390999828
202.493074991	1	learning	violation	3	B	17	scene	outdoor	1	0.5090599109998948
205.49303182799983	1	learning	violation	4	A	19	scene	outdoor	1	0.4761018630001672
208.49299672200004	1	learning	violation	4	B	19	scene	outdoor	1	0.6071415399997022
211.4929521629997	1	restudy	nonviolation	5	B	65	scene	outdoor	1	0.5161890620001941
214.49291091699982	1	learning	violation	3	A	20	scene	indoor	1	0.4962399900000492
217.49286993199985	1	learning	violation	3	B	20	scene	indoor	1	0.5702740040001117
220.49282870299976	1	learning	violation	3	A	18	scene	outdoor	1	0.7583429979999892
223.49278793299985	1	learning	violation	3	B	18	scene	indoor	1	0.5023613339999429
226.49274681199998	1	learning	nonviolation	3	A	66	scene	indoor	1	0.6283954440000343
229.4927066569999	1	learning	nonviolation	3	B	66	scene	outdoor	1	0.5034363149998171
232.49266417499985	1	learning	violation	2	A	23	scene	indoor	1	0.5214824149998094
235.49262339300003	1	learning	violation	2	B	23	scene	outdoor	1	0.5345263469998827
238.492584222	1	learning	violation	4	A	20	scene	indoor	1	0.5045575019998978
241.49254153499987	1	learning	violation	4	B	20	scene	indoor	1	0.6405993600001239
244.49250040399968	1	violation	violation	5	A	19	scene	outdoor	1	0.4896439930002998
247.49245754400002	1	violation	violation	1	X	19	face	male	1	0.5896827940000549
250.49241803199996	1	learning	nonviolation	3	A	69	scene	outdoor	1	0.4477241499998854
253.49237513899968	1	learning	nonviolation	3	B	69	scene	indoor	1	0.5857643500003178
256.4923359609997	1	restudy	nonviolation	6	B	65	scene	outdoor	1	0.4668136999998751
259.4922932989998	1	learning	nonviolation	3	A	67	scene	outdoor	1	0.7638469080002324
262.4922538349997	1	learning	nonviolation	3	B	67	scene	outdoor	1	0.7058906420002131
265.492212962	1	learning	nonviolation	4	A	69	scene	outdoor	1	0.4739398219999202
268.49217212199983	1	learning	nonviolation	4	B	69	scene	indoor	1	0.5389836680001281
271.4921285299997	1	learning	violation	3	A	23	scene	indoor	1	0.5580226679999214
274.49209273299994	1	learning	violation	3	B	23	scene	outdoor	1	0.5310533159999977
277.492048141	1	learning	nonviolation	2	A	70	scene	outdoor	1	0.4861051269999734
280.4920051629997	1	learning	nonviolation	2	B	70	scene	indoor	1	0.5811409299999468
283.49196587200004	1	learning	violation	4	A	17	scene	indoor	1	0.5752171269996325
286.49192475099966	1	learning	violation	4	B	17	scene	outdoor	1	0.5442219030001071
289.49188358499987	1	learning	nonviolation	3	A	68	scene	indoor	1	0.5023444660000678
292.491842938	1	learning	nonviolation	3	B	68	scene	outdoor	1	0.5753206579997823
295.4918032229998	1	learning	violation	3	A	22	scene	outdoor	1	0.4773434600001565
298.4917574809997	1	learning	violation	3	B	22	scene	indoor	1	0.467398323999987
301.4917190269998	1	learning	violation	4	A	21	scene	indoor	1	0.5184398609999334
304.4916774579997	1	learning	violation	4	B	21	scene	indoor	1	0.5104685440001049
307.4916362039998	1	learning	nonviolation	4	A	66	scene	indoor	1	0.4985242319999088
310.4915954869998	1	learning	nonviolation	4	B	66	scene	outdoor	1	0.39855789600005664
313.49155403999976	1	violation	violation	5	A	17	scene	indoor	1	0.5635144200000468
316.49151321799985	1	violation	violation	1	X	17	face	male	1	0.8336421449998852
319.49147041299966	1	restudy	violation	5	B	19	scene	outdoor	1	0.4886803130002591
322.491428628	1	learning	violation	2	A	24	scene	outdoor	1	0.5847218959997917
325.4913894199999	1	learning	violation	2	B	24	scene	outdoor	1	0.5017724989997987
328.4913485269999	1	learning	violation	4	A	22	scene	outdoor	1	0.47580788799996293
331.4913071809997	1	learning	violation	4	B	22	scene	indoor	1	0.5668064060000688
334.49126428	1	violation	violation	5	A	20	scene	indoor	1	0.5308874160000414
337.49122462800005	1	violation	violation	1	X	20	face	female	1	0.5500165269995705
340.49119073099973	1	learning	violation	4	A	18	scene	outdoor	1	0.4049648150003122
343.4911434669998	1	learning	violation	4	B	18	scene	indoor	1	0.5440146770001775
346.4911021759999	1	learning	nonviolation	3	A	70	scene	outdoor	1	0.5560508739999932
349.49106026599975	1	learning	nonviolation	3	B	70	scene	indoor	1	0.7160946530002548
352.49101901999984	1	learning	nonviolation	4	A	68	scene	indoor	1	0.5691384530000505
355.4909757509999	1	learning	nonviolation	4	B	68	scene	outdoor	1	0.5691779459998543
358.49093642499975	1	learning	nonviolation	4	A	67	scene	outdoor	1	0.6082396940000763
361.49089574499976	1	learning	nonviolation	4	B	67	scene	outdoor	1	0.4712557670000024
364.49085144699984	1	restudy	nonviolation	5	B	69	scene	indoor	1	0.452371157000016
367.49081330599984	1	restudy	nonviolation	5	B	68	scene	outdoor	1	0.5213433650001207
370.4907719039998	1	restudy	violation	5	B	17	scene	outdoor	1	0.6093881249998958
373.490731079	1	learning	violation	4	A	23	scene	indoor	0	0.3984357649997037
376.49068936199996	1	learning	violation	4	B	23	scene	outdoor	1	0.6014788939996834
379.49064836699966	1	restudy	nonviolation	5	B	66	scene	outdoor	1	0.5855073150000862
382.4906052729998	1	violation	violation	5	A	21	scene	indoor	1	0.5125813909999124
385.49056598699957	1	violation	violation	1	X	21	face	female	1	0.613503619000312
388.49052438499984	1	violation	violation	5	A	22	scene	outdoor	1	0.4556372020001618
391.490480124	1	violation	violation	1	X	22	face	female	1	0.5526993519997632
394.490441079	1	violation	violation	6	A	19	scene	outdoor	1	0.5357180219998554
397.4904012959996	1	violation	violation	1	Y	19	face	male	1	0.5927759730002435
400.49035987199983	1	restudy	nonviolation	6	B	66	scene	outdoor	1	0.5517997350002588
403.4903187519999	1	learning	violation	3	A	24	scene	outdoor	1	0.4699183269999594
406.49027731299975	1	learning	violation	3	B	24	scene	outdoor	1	0.4708984930002771
409.490236312	1	learning	nonviolation	4	A	70	scene	outdoor	1	0.4909097179997843
412.4901945849997	1	learning	nonviolation	4	B	70	scene	indoor	1	0.5649662270002409
415.49015364699966	1	violation	violation	6	A	17	scene	indoor	1	0.5530304650001199
418.490111133	1	violation	violation	1	Y	17	face	male	1	0.6820618499996272
421.49006929300003	1	restudy	nonviolation	6	B	69	scene	indoor	1	0.5950955399998747
424.4900294929998	1	violation	violation	5	A	23	scene	indoor	1	0.4922177329999613
427.4899861589997	1	violation	violation	1	X	23	face	male	1	0.5911760660001164
430.48994536699996	1	violation	violation	5	A	18	scene	outdoor	1	0.5352203139996163
433.4899060129997	1	violation	violation	1	X	18	face	female	1	0.5122578870000325
436.4898651599997	1	restudy	nonviolation	6	B	68	scene	outdoor	1	0.7032970079999359
439.48982308	1	restudy	violation	5	B	20	scene	indoor	1	0.5543501489996743
442.48978201699987	1	restudy	violation	6	B	19	scene	outdoor	1	0.5263842710000972
445.489738583	1	restudy	nonviolation	5	B	67	scene	outdoor	1	0.5004298799999559
448.4896994389997	1	learning	violation	4	A	24	scene	outdoor	1	0.5315437600002042
451.48965589999983	1	learning	violation	4	B	24	scene	outdoor	1	0.7075104579998879
454.48961409	1	restudy	violation	5	B	22	scene	indoor	1	0.5145513759998721
457.48957539999986	1	learning	nonviolation	2	A	71	scene	indoor	1	0.6065900579997106
460.48953391899977	1	learning	nonviolation	2	B	71	scene	indoor	1	0.5276359720000983
463.48949343199996	1	learning	nonviolation	2	A	72	scene	indoor	1	0.4997007580000172
466.48945063699966	1	learning	nonviolation	2	B	72	scene	indoor	1	0.5607160100003057
469.48940777200005	1	restudy	violation	5	B	18	scene	indoor	1	0.4697724859997834
472.489368694	1	restudy	violation	5	B	23	scene	outdoor	1	0.7448038319998886
475.48932765099966	1	restudy	nonviolation	5	B	70	scene	indoor	1	0.5627739760002441
478.48928573099965	1	restudy	violation	5	B	21	scene	indoor	1	0.5128139350003948
481.4892444289999	1	restudy	nonviolation	6	B	67	scene	outdoor	1	0.5199276630000895
484.48920242199983	1	violation	violation	6	A	18	scene	outdoor	1	0.5009741829999257
487.48915979699996	1	violation	violation	1	Y	18	face	female	1	0.7090229269997508
490.4891205909999	1	learning	nonviolation	3	A	72	scene	indoor	1	0.50905069800001
493.48907896899976	1	learning	nonviolation	3	B	72	scene	indoor	1	0.986125773999902
496.48903796900004	1	violation	violation	6	A	22	scene	outdoor	1	0.4201417379999839
499.488995359	1	violation	violation	1	Y	22	face	female	1	0.6551888730000428
502.4889547169996	1	violation	violation	6	A	23	scene	indoor	1	0.4973191940002834
505.48891389499977	1	violation	violation	1	Y	23	face	male	1	0.5992614649999268
508.48887052599997	1	restudy	violation	6	B	17	scene	outdoor	1	0.7542269359996681
511.48882881599997	1	learning	nonviolation	4	A	72	scene	indoor	1	0.5453256569999212
514.4887895499996	1	learning	nonviolation	4	B	72	scene	indoor	1	0.4923844400000234
517.4887486049997	1	learning	nonviolation	3	A	71	scene	indoor	1	0.5614248259998931
520.4887087899997	1	learning	nonviolation	3	B	71	scene	indoor	1	0.5564965870003107
523.488663138	1	violation	violation	6	A	20	scene	indoor	1	0.524516797999695
526.488623874	1	violation	violation	1	Y	20	face	female	1	0.5555497479999758
529.4885823049998	1	restudy	nonviolation	5	B	72	scene	indoor	1	0.6945960610000839
532.488538565	1	learning	nonviolation	4	A	71	scene	indoor	1	0.4276419650000207
535.4884998279999	1	learning	nonviolation	4	B	71	scene	indoor	1	0.6876799619999474
538.4884573179997	1	violation	violation	5	A	24	scene	outdoor	1	0.4607246210002813
541.488416616	1	violation	violation	1	X	24	face	male	1	0.5847622209998917
544.4883756209997	1	violation	violation	6	A	21	scene	indoor	1	0.5228038360000937
547.4883346679999	1	violation	violation	1	Y	21	face	female	1	0.5378482289997919
550.4882904369997	1	restudy	violation	6	B	20	scene	indoor	1	0.4988965530001224
553.4882509599997	1	restudy	violation	5	B	24	scene	outdoor	1	0.4090088410002864
556.4882078619999	1	restudy	nonviolation	6	B	70	scene	indoor	1	0.4569778800000677
559.4881692099998	1	restudy	violation	6	B	18	scene	indoor	1	0.5520016710001983
562.4714582849997	1	violation	violation	6	A	24	scene	outdoor	1	0.5787267979999342
565.4714157409999	1	violation	violation	1	Y	24	face	male	1	0.6367765330001021
568.471374703	1	restudy	violation	6	B	22	scene	indoor	1	0.5708069059996888
571.4713339959999	1	restudy	nonviolation	5	B	71	scene	indoor	1	0.5148515089999819
574.4712929879997	1	restudy	violation	6	B	23	scene	outdoor	1	0.5928896989998975
577.4712516269998	1	restudy	nonviolation	6	B	72	scene	indoor	1	0.6009306870000728
580.4712089189998	1	restudy	nonviolation	6	B	71	scene	indoor	1	0.4959782030000497
583.4711670919996	1	restudy	violation	6	B	24	scene	outdoor	1	0.5180207660000633
586.4711270529997	1	restudy	violation	6	B	21	scene	indoor	1	0.5430597449999368
