onset	duration	trial_type	condition	repetition	pairmate	pairID	category	subcategory	response_accuracy	response_time
13.507851242029574	1	prelearning	violation	1	B	2	scene	outdoor	1	0.7239304119721055
16.507811660994776	1	prelearning	violation	1	B	8	scene	outdoor	1	0.6259665209800005
19.507771607022725	1	prelearning	violation	1	B	3	scene	indoor	1	0.6590041819727048
22.507733077974986	1	prelearning	violation	1	A	6	scene	outdoor	1	0.6080541960545816
25.50769343599677	1	prelearning	nonviolation	1	B	52	scene	indoor	1	0.6810944420285523
28.50765674398281	1	prelearning	nonviolation	1	B	51	scene	outdoor	1	0.4780097859911621
31.50761470600264	1	prelearning	nonviolation	1	B	55	scene	indoor	1	0.5492149139754474
34.507582447025925	1	prelearning	nonviolation	1	A	56	scene	outdoor	1	0.4282041209517047
37.507535515003845	1	prelearning	violation	1	A	8	scene	indoor	1	0.7132498379796743
40.507496160978924	1	prelearning	violation	1	B	7	scene	outdoor	1	0.4422893470036797
43.507456411025494	1	prelearning	nonviolation	1	A	50	scene	outdoor	1	0.5143294349545613
46.507416739012115	1	prelearning	nonviolation	1	A	49	scene	outdoor	1	0.5382789080031216
49.50737706403015	1	prelearning	nonviolation	1	B	53	scene	indoor	1	0.6934070689603686
52.50733751698863	1	prelearning	violation	1	A	4	scene	outdoor	1	0.5574447500403039
55.507297581993036	1	prelearning	nonviolation	1	B	49	scene	indoor	1	0.597414530988317
58.50725575000978	1	prelearning	violation	1	A	2	scene	outdoor	1	0.5205272730090655
61.50721822300692	1	prelearning	nonviolation	1	A	51	scene	indoor	1	0.5325632040039636
64.50717827997869	1	prelearning	violation	1	B	5	scene	indoor	1	0.4816102019976825
67.50713860301768	1	prelearning	nonviolation	1	A	54	scene	indoor	1	0.5806450509699062
70.50709869997809	1	prelearning	violation	1	A	7	scene	indoor	1	0.4876883730175905
73.50705845700577	1	prelearning	violation	1	B	6	scene	outdoor	1	0.3897354470100254
76.50701891002245	1	prelearning	violation	1	B	1	scene	indoor	1	0.4387864339514636
79.50697907700669	1	prelearning	violation	1	B	4	scene	indoor	1	0.4848005209933035
82.50693704397419	1	prelearning	nonviolation	1	B	56	scene	outdoor	1	0.42084821505704895
85.50689679797506	1	prelearning	violation	1	A	1	scene	outdoor	1	0.4129039350082167
88.50685867801077	1	prelearning	nonviolation	1	A	52	scene	outdoor	0	0.5668987120152451
91.50681849202374	1	prelearning	nonviolation	1	B	54	scene	outdoor	1	0.5029771690024063
94.50677852903029	1	prelearning	violation	1	A	5	scene	indoor	1	0.4888709439546801
97.50673839601221	1	prelearning	nonviolation	1	A	55	scene	indoor	1	0.5155371659784578
100.5066990670166	1	prelearning	nonviolation	1	A	53	scene	indoor	1	0.7810140179935843
103.50666058802744	1	prelearning	violation	1	A	3	scene	indoor	1	0.4141345800017007
106.50661767699057	1	prelearning	nonviolation	1	B	50	scene	outdoor	1	0.4101764709921554
109.50658027100144	1	learning	violation	2	A	1	scene	outdoor	1	0.4082090189913288
112.50653733097715	1	learning	violation	2	B	1	scene	indoor	1	0.4881367380148731
115.50649504701141	1	learning	violation	2	A	2	scene	outdoor	1	0.5662970090052113
118.50646071101072	1	learning	violation	2	B	2	scene	outdoor	1	0.7043343599652871
121.50641644001007	1	learning	violation	2	A	3	scene	indoor	1	0.4913842189707793
124.50637657998597	1	learning	violation	2	B	3	scene	indoor	1	0.4624185610446148
127.50633359700441	1	learning	violation	2	A	4	scene	outdoor	1	0.5324605579953641
130.5062950879801	1	learning	violation	2	B	4	scene	indoor	1	0.4664960980298929
133.50625257298816	1	learning	nonviolation	2	A	49	scene	outdoor	1	0.4655466719996184
136.50622278801166	1	learning	nonviolation	2	B	49	scene	indoor	1	0.5485685829771683
139.50617196102394	1	learning	nonviolation	2	A	50	scene	outdoor	1	0.6896488099591807
142.5061335089849	1	learning	nonviolation	2	B	50	scene	outdoor	1	0.5316614230396226
145.50609309301942	1	learning	nonviolation	2	A	51	scene	indoor	1	0.4837819709791802
148.50605246803025	1	learning	nonviolation	2	B	51	scene	outdoor	1	0.4307428899919614
151.5060122220311	1	learning	nonviolation	3	A	49	scene	outdoor	1	0.5487837469554506
154.5059790990199	1	learning	nonviolation	3	B	49	scene	indoor	1	0.4958170329919085
157.50593146699248	1	learning	violation	2	A	5	scene	indoor	1	0.3988604540354572
160.5058908929932	1	learning	violation	2	B	5	scene	indoor	1	0.3979064800078049
163.505848167988	1	learning	violation	3	A	3	scene	indoor	1	0.4119502149987966
166.50580977700884	1	learning	violation	3	B	3	scene	indoor	1	0.4339086170075461
169.50577512203017	1	learning	violation	2	A	6	scene	outdoor	1	0.4330236249952577
172.50572860502868	1	learning	violation	2	B	6	scene	outdoor	1	0.4200761419488117
175.50568818597822	1	learning	violation	3	A	1	scene	outdoor	1	0.4391923460061662
178.50564749201294	1	learning	violation	3	B	1	scene	indoor	1	0.4511562319821678
181.50560715800384	1	learning	violation	3	A	5	scene	indoor	1	0.4511905739782378
184.5055664380197	1	learning	violation	3	B	5	scene	indoor	1	0.5381773189874366
187.50552408699883	1	learning	nonviolation	2	A	52	scene	outdoor	1	0.4482790359761566
190.50548506400082	1	learning	nonviolation	2	B	52	scene	indoor	1	0.4882792719872669
193.50544465502026	1	learning	nonviolation	2	A	53	scene	indoor	1	0.5113536089775153
196.50540398299927	1	learning	nonviolation	2	B	53	scene	indoor	1	0.5164046050049365
199.50536278402438	1	learning	violation	3	A	2	scene	outdoor	1	0.5704435429652222
202.5053231950151	1	learning	violation	3	B	2	scene	outdoor	1	0.5974765130085871
205.50528023001968	1	learning	violation	3	A	6	scene	outdoor	1	0.4615288919885643
208.50524098600727	1	learning	violation	3	B	6	scene	outdoor	1	0.4825602360069752
211.5051988679916	1	learning	violation	4	A	3	scene	indoor	1	0.5396183760021813
214.5051598550053	1	learning	violation	4	B	3	scene	indoor	1	0.4466468800092116
217.50511701998767	1	learning	nonviolation	3	A	53	scene	indoor	1	0.5586840130272321
220.5050777589786	1	learning	nonviolation	3	B	53	scene	indoor	1	0.5367297070333734
223.48836820502763	1	learning	violation	3	A	4	scene	outdoor	1	0.6444443859509192
226.48832746403062	1	learning	violation	3	B	4	scene	indoor	1	0.4454749119468033
229.48828664299802	1	learning	nonviolation	3	A	51	scene	indoor	1	0.4475209939992055
232.4882459110231	1	learning	nonviolation	3	B	51	scene	outdoor	1	0.4635686939582229
235.48820684000384	1	learning	violation	4	A	2	scene	outdoor	1	0.5336088010226376
238.4881642279797	1	learning	violation	4	B	2	scene	outdoor	1	0.3806409780518152
241.48813321697529	1	learning	nonviolation	3	A	52	scene	outdoor	1	0.490678716043476
244.488155464991	1	learning	nonviolation	3	B	52	scene	indoor	1	0.4196516140364111
247.48804338701302	1	learning	nonviolation	3	A	50	scene	outdoor	1	0.4547619560034946
250.4880021979916	1	learning	nonviolation	3	B	50	scene	outdoor	1	0.627814307983499
253.4879647020134	1	learning	violation	4	A	4	scene	outdoor	1	0.4767619419726543
256.48792423302075	1	learning	violation	4	B	4	scene	indoor	1	0.4778926479630172
259.4878798159771	1	violation	violation	5	A	3	scene	indoor	1	0.6874168490176089
262.48784105898807	1	violation	violation	1	X	3	face	female	1	0.9309719069860876
265.4877999780001	1	learning	nonviolation	4	A	49	scene	outdoor	1	0.4810097279842012
268.48775923298666	1	learning	nonviolation	4	B	49	scene	indoor	1	0.491048238996882
271.48771805001894	1	learning	violation	4	A	5	scene	indoor	1	0.4971697209984995
274.4876790220151	1	learning	violation	4	B	5	scene	indoor	1	0.4801324279978871
277.4876345450175	1	violation	violation	5	A	2	scene	outdoor	1	0.5301927530090325
280.4875936069875	1	violation	violation	1	X	2	face	male	1	0.4122277009882964
283.48755474499194	1	learning	violation	2	A	7	scene	indoor	1	0.5612633239943534
286.48751381703187	1	learning	violation	2	B	7	scene	outdoor	1	0.521302091947291
289.4874697329942	1	learning	nonviolation	4	A	51	scene	indoor	1	0.5523445250000805
292.48743004899006	1	learning	nonviolation	4	B	51	scene	outdoor	1	0.5004625670262612
295.4873911869945	1	learning	violation	4	A	1	scene	outdoor	1	0.4954299730015919
298.4873477650108	1	learning	violation	4	B	1	scene	indoor	1	0.4834761829697527
301.48730945400894	1	learning	violation	4	A	6	scene	outdoor	1	0.5075108120217919
304.48726848402293	1	learning	violation	4	B	6	scene	outdoor	1	0.4545532320044003
307.4872272050125	1	learning	nonviolation	4	A	53	scene	indoor	1	0.4445877799880691
310.487186435028	1	learning	nonviolation	4	B	53	scene	indoor	1	0.5396266969619319
313.48714391299285	1	violation	violation	5	A	1	scene	outdoor	1	0.4096746279974468
316.48710430099163	1	violation	violation	1	X	1	face	female	1	0.4427237350028008
319.48706357902853	1	restudy	nonviolation	5	B	49	scene	indoor	1	0.5886722169816494
322.48702315799886	1	restudy	nonviolation	5	B	53	scene	indoor	1	0.5227229929878376
325.48698177601915	1	learning	nonviolation	4	A	50	scene	outdoor	1	0.4938338460051455
328.4869404530036	1	learning	nonviolation	4	B	50	scene	outdoor	1	0.5368831389932893
331.4868995820288	1	learning	nonviolation	2	A	54	scene	indoor	1	0.4479162759962492
334.48686472198466	1	learning	nonviolation	2	B	54	scene	outdoor	1	0.4809563719900325
337.48681760201	1	restudy	nonviolation	6	B	49	scene	indoor	1	0.5590028010192327
340.48677642602706	1	restudy	violation	5	B	3	scene	indoor	1	0.4390568700036965
343.4867354279849	1	violation	violation	5	A	4	scene	outdoor	1	0.4710841630003415
346.48669361002976	1	violation	violation	1	X	4	face	female	1	0.4701293300022371
349.48665125702973	1	learning	nonviolation	4	A	52	scene	outdoor	1	0.4751695929444395
352.48661051399534	1	learning	nonviolation	4	B	52	scene	indoor	1	0.50722772203153
355.4865686019766	1	learning	nonviolation	2	A	55	scene	indoor	1	0.4542641710140742
358.4865299700177	1	learning	nonviolation	2	B	55	scene	indoor	1	0.8142998759867623
361.48648907698237	1	violation	violation	5	A	6	scene	outdoor	1	0.4773081380408257
364.4864478959935	1	violation	violation	1	X	6	face	male	1	0.555293926037848
367.48640683502884	1	restudy	nonviolation	5	B	51	scene	outdoor	1	0.5013997339992784
370.4863657120149	1	violation	violation	5	A	5	scene	indoor	1	0.5124636589898728
373.48632480902603	1	violation	violation	1	X	5	face	female	1	0.4355074719642289
376.48628380399896	1	learning	violation	3	A	7	scene	indoor	1	0.5115511600160971
379.4862441589939	1	learning	violation	3	B	7	scene	outdoor	1	0.5975490160053596
382.4862020789878	1	restudy	violation	5	B	4	scene	indoor	1	0.5371230280143209
385.4861604089965	1	restudy	violation	5	B	2	scene	outdoor	1	0.558673722029198
388.4861193540273	1	learning	violation	4	A	7	scene	indoor	1	0.5607109799748287
391.4860783729818	1	learning	violation	4	B	7	scene	outdoor	1	0.5757498360471801
394.48603728000313	1	restudy	violation	5	B	1	scene	indoor	1	0.5187703570118174
397.48599950002966	1	learning	violation	2	A	8	scene	indoor	1	0.4488257589982823
400.4859552190173	1	learning	violation	2	B	8	scene	outdoor	1	0.4438760619959794
403.4859120760229	1	restudy	nonviolation	5	B	50	scene	outdoor	1	0.4608865859918296
406.48587310803117	1	violation	violation	6	A	3	scene	indoor	1	0.5659522259957157
409.48583171900833	1	violation	violation	1	Y	3	face	female	1	0.4200057309935801
412.48579073598376	1	learning	violation	3	A	8	scene	indoor	1	0.4580493270186707
415.4857497810152	1	learning	violation	3	B	8	scene	outdoor	1	0.481082008976955
418.48571123101283	1	restudy	nonviolation	6	B	53	scene	indoor	1	0.5071204839623533
421.48566753399786	1	learning	nonviolation	3	A	55	scene	indoor	1	0.5931726230191998
424.48562655900605	1	learning	nonviolation	3	B	55	scene	indoor	1	0.4432594570098445
427.4855856139911	1	learning	nonviolation	3	A	54	scene	indoor	1	0.4852449939935468
430.48554442502785	1	learning	nonviolation	3	B	54	scene	outdoor	1	0.5412902179523371
433.4855040260009	1	restudy	violation	5	B	6	scene	outdoor	1	0.5433288679923862
436.48546246398473	1	restudy	nonviolation	5	B	52	scene	indoor	1	0.4923679100465961
439.48542184202233	1	learning	nonviolation	4	A	54	scene	indoor	1	0.5954133719787933
442.48537832597503	1	learning	nonviolation	4	B	54	scene	outdoor	1	0.477455277054105
445.4853366540046	1	restudy	violation	5	B	5	scene	indoor	1	0.5584939810214564
448.48529782902915	1	learning	nonviolation	4	A	55	scene	indoor	1	0.6085465399664827
451.4852549009957	1	learning	nonviolation	4	B	55	scene	indoor	1	0.477589841990266
454.48521579499356	1	restudy	nonviolation	6	B	51	scene	outdoor	1	0.4906246140017174
457.4851746190106	1	learning	violation	4	A	8	scene	indoor	1	0.478663963964209
460.48513348097913	1	learning	violation	4	B	8	scene	outdoor	1	0.4867004940169864
463.48509069898864	1	violation	violation	6	A	2	scene	outdoor	1	0.5307439450407401
466.4850514979917	1	violation	violation	1	Y	2	face	male	1	0.5147994270082563
469.48501006601145	1	violation	violation	6	A	4	scene	outdoor	1	0.4843138019787148
472.48496882000467	1	violation	violation	1	Y	4	face	female	1	0.4618672719807364
475.4849281429779	1	violation	violation	6	A	1	scene	outdoor	1	0.46682818204863
478.4848851400311	1	violation	violation	1	Y	1	face	female	1	0.5279552239808254
481.48484556598123	1	violation	violation	6	A	6	scene	outdoor	1	0.6319897720240988
484.4848047309788	1	violation	violation	1	Y	6	face	male	0	0.5130434550228529
487.48476358997874	1	violation	violation	5	A	7	scene	indoor	1	0.5530781900160946
490.4847225269768	1	violation	violation	1	X	7	face	male	1	0.4651259890524671
493.4846816170029	1	restudy	violation	6	B	4	scene	indoor	1	0.5361547690117732
496.4846401300165	1	restudy	nonviolation	6	B	50	scene	outdoor	1	0.5402106439578347
499.4845992500195	1	restudy	nonviolation	5	B	55	scene	indoor	1	0.5462526580085978
502.4845619740081	1	restudy	violation	6	B	3	scene	indoor	1	0.6532958159805275
505.4845170280314	1	learning	nonviolation	2	A	56	scene	outdoor	1	0.4803276439779438
508.4844738600077	1	learning	nonviolation	2	B	56	scene	outdoor	1	0.4882572829956189
511.48443453101214	1	restudy	violation	6	B	6	scene	outdoor	1	0.38740860600955773
514.4843934879755	1	restudy	nonviolation	5	B	54	scene	outdoor	1	0.4424458960420452
517.4843525430188	1	restudy	nonviolation	6	B	52	scene	indoor	1	0.6304872629698366
520.4843112640083	1	violation	violation	6	A	5	scene	indoor	1	0.4945894919801504
523.4842703440227	1	violation	violation	1	Y	5	face	female	1	0.6105759479687549
526.4842289329972	1	restudy	violation	5	B	7	scene	outdoor	1	0.5446196459815837
529.4841878919979	1	learning	nonviolation	3	A	56	scene	outdoor	1	0.5706581370322965
532.4841465380159	1	learning	nonviolation	3	B	56	scene	outdoor	1	0.5427089990116656
535.4841035529971	1	restudy	violation	6	B	5	scene	indoor	1	0.5847421470098197
538.484064216027	1	restudy	violation	6	B	1	scene	indoor	1	0.5892683889833279
541.4840211729752	1	violation	violation	5	A	8	scene	indoor	1	0.4538280520355329
544.4839807190001	1	violation	violation	1	X	8	face	male	1	0.6387863190029748
547.483940982027	1	restudy	violation	6	B	2	scene	outdoor	1	0.5168256500037387
550.4838997179759	1	learning	nonviolation	4	A	56	scene	outdoor	1	0.4509513130178675
553.4838584819809	1	learning	nonviolation	4	B	56	scene	outdoor	1	0.5549322020378895
556.4838154540048	1	violation	violation	6	A	7	scene	indoor	1	0.4860421770135872
559.4837758400245	1	violation	violation	1	Y	7	face	male	1	0.471076475980226
562.4837345990236	1	restudy	violation	5	B	8	scene	outdoor	1	0.4831152299884707
565.4836935459753	1	restudy	nonviolation	5	B	56	scene	outdoor	1	0.4361610610503704
568.483652409981	1	restudy	nonviolation	6	B	54	scene	outdoor	1	0.4351939220214263
571.4836114700303	1	restudy	violation	6	B	7	scene	outdoor	1	0.438217619957868
574.4835689410103	1	violation	violation	6	A	8	scene	indoor	1	0.534377678995952
577.4835286620072	1	violation	violation	1	Y	8	face	male	1	0.4533230559900403
580.4834870899795	1	restudy	nonviolation	6	B	55	scene	indoor	1	0.4623720200033858
583.4834494179812	1	restudy	nonviolation	6	B	56	scene	outdoor	1	0.453401478996966
586.4834050820209	1	restudy	violation	6	B	8	scene	outdoor	1	0.6404558959766291
