onset	duration	trial_type	condition	response_accuracy	response_time
13.501639957074074	2.5	B	violation	0	1.1595951439812782
16.501591121777892	2.5	A	violation	1	1.1266381531022491
19.50154776312411	2.5	A	nonviolation	1	0.9426829456351696
22.50151643715799	2.5	A	violation	1	0.954721946734935
25.50146722886711	2.5	A	nonviolation	1	0.6997713670134544
28.50143635412678	2.5	B	nonviolation	0	0.914804516825825
31.50139083806425	2.5	B	nonviolation	0	0.9178516138345004
34.50134715484455	2.5	B	violation	1	0.7238927311263978
37.50131722912192	2.5	A	violation	1	1.1749184420332313
40.50126653676853	2.5	B	nonviolation	0	0.8499751831404865
43.50123002100736	2.5	B	violation	0	1.1090099378488958
46.50119454599918	2.5	A	violation	1	0.603971416130662
49.501156693790115	2.5	B	nonviolation	1	0.6650990140624344
52.50111636286602	2.5	B	violation	1	0.7921251431107521
55.50106701394542	2.5	B	nonviolation	1	0.678186115808785
58.50103519577533	2.5	B	violation	0	0.7822091421112418
61.500985508784645	2.5	B	violation	1	0.799266507383436
64.50095786713064	2.5	B	nonviolation	1	0.856281213928014
67.50090785417707	2.5	A	violation	1	0.9273327649571002
70.50086381379516	2.5	B	violation	0	0.9903830760158598
73.50082973018289	2.5	A	nonviolation	1	0.9554116325452924
76.50079633994028	2.5	A	violation	1	0.8624445698224008
79.50075478199871	2.5	A	violation	1	0.6714842477813363
82.50070191174746	2.5	A	nonviolation	1	0.7995469099842012
85.50066768890247	2.5	A	nonviolation	1	0.7795777642168105
88.50062556983904	2.5	A	nonviolation	1	0.8986177970655262
91.5005918610841	2.5	B	nonviolation	1	0.9476505387574434
94.50054546399042	2.5	B	violation	1	0.8147039921022952
97.5005052429624	2.5	B	nonviolation	1	0.8347385181114078
100.50046342797577	2.5	B	violation	0	1.0468071079812944
103.50042222486807	2.5	A	violation	1	0.8508206261321902
106.50038877781479	2.5	A	nonviolation	1	1.0128580941818657
109.50033978978172	2.5	B	nonviolation	0	1.0379031240008771
112.50030587008223	2.5	B	violation	0	1.0599404419772327
115.5002755508758	2.5	B	violation	0	1.2049728082492948
118.50022038584575	2.5	A	nonviolation	1	0.945027864072472
121.50018155109136	2.5	A	violation	1	1.2060668696649373
124.5001349411905	2.5	A	violation	1	0.8501136968843639
127.50010088086128	2.5	A	violation	1	0.9121552421711384
130.5000544670038	2.5	A	violation	1	0.5981973689049482
133.50001631584018	2.5	B	nonviolation	1	0.6981575512327254
136.499978041742	2.5	A	nonviolation	1	0.8082825490273535
139.4999366509728	2.5	B	nonviolation	0	0.8973148209042847
142.49989600386468	2.5	A	nonviolation	1	0.6363518568687141
145.4998559760861	2.5	A	nonviolation	1	0.9073928389698268
148.49981391290203	2.5	A	nonviolation	1	0.8603511429391801
151.49977294495332	2.5	B	violation	0	0.8544795601628721
154.49973070109263	2.5	B	nonviolation	1	0.9365217988379301
157.49969820911062	2.5	A	violation	1	0.8315768586471677
160.49964812910184	2.5	B	nonviolation	1	1.2756067099981008
163.4996087518521	2.5	A	nonviolation	1	0.6636694259941578
166.49957408476618	2.5	A	nonviolation	1	0.6086832550354302
169.49952959083018	2.5	B	nonviolation	0	0.7397229662165046
172.4994860067964	2.5	A	nonviolation	1	0.823770347982645
175.49945465289053	2.5	B	nonviolation	0	0.9328010608442128
178.49940784601498	2.5	B	nonviolation	0	0.7808505780994892
181.4993749931455	2.5	B	nonviolation	1	0.8248835047706962
184.49932497693226	2.5	A	violation	1	0.5419282792136073
187.49929023301232	2.5	B	violation	0	0.910969145130366
190.4992401767522	2.5	B	violation	1	0.7289395900443196
193.4992043618113	2.5	A	violation	1	1.0120535781607032
196.4991613239981	2.5	B	violation	0	1.1830941340886056
199.4991217171773	2.5	A	violation	0	1.0411418597213924
202.49907618807632	2.5	B	nonviolation	1	0.9401798960752784
205.49904027301815	2.5	A	violation	1	0.6212194040417671
208.49900417216116	2.5	A	violation	1	1.0082561057060957
211.49895766284317	2.5	B	nonviolation	0	1.1513005262240767
214.4989154790528	2.5	B	nonviolation	0	1.1193464207462966
217.49887609295547	2.5	B	nonviolation	0	1.051385966129601
220.49883542303002	2.5	B	violation	1	0.6684276997111738
223.49880154104903	2.5	A	nonviolation	1	0.6974611571058631
226.49875187082213	2.5	B	violation	0	0.8065064931288362
229.49871830875054	2.5	B	nonviolation	1	1.5085251634009182
232.49867657199505	2.5	A	nonviolation	1	0.7245960277505219
235.49863540381196	2.5	B	violation	0	0.8556270282715559
238.49859077390286	2.5	B	nonviolation	1	0.8336663939990103
241.49855514988303	2.5	A	violation	1	0.6257073441520333
244.49850988388062	2.5	B	violation	0	0.7597536179237068
247.49846586585045	2.5	A	nonviolation	1	0.5737942750565708
250.4984323689714	2.5	B	violation	1	0.8328389278613031
253.4983848850243	2.5	A	violation	1	1.0298767648637297
256.4983505657874	2.5	B	nonviolation	1	0.9959171982482076
259.4983091969043	2.5	A	nonviolation	1	1.3059569071047008
262.49826802080497	2.5	A	nonviolation	1	0.6009962502866983
265.498222719878	2.5	A	nonviolation	1	0.9370535928756
268.4981813840568	2.5	A	nonviolation	1	0.8780863378196955
271.4981465190649	2.5	A	nonviolation	1	0.8591165277175605
274.4981056009419	2.5	A	violation	1	0.7461679251864552
277.4980547381565	2.5	B	violation	0	1.11521382862702
280.49801346706226	2.5	A	violation	1	1.0601822310127318
283.497977711726	2.5	A	violation	1	0.7552976352162659
286.4979373109527	2.5	B	violation	1	0.8393325549550354
289.49790090508765	2.5	A	violation	0	0.99936863174662
292.4978610649705	2.5	A	nonviolation	0	0.8954066229052842
295.49782135989517	2.5	B	violation	1	0.6444456251338124
298.49777976004407	2.5	B	violation	0	0.7024857439100742
301.4977320861072	2.5	B	violation	1	1.0315478728152812
304.49768660217524	2.5	B	violation	0	0.9145845510065556
307.4976472081616	2.5	B	nonviolation	0	0.9536174847744404
310.4976090141572	2.5	B	nonviolation	0	1.1716603036038578
313.49756644992164	2.5	B	violation	0	0.8687091320753098
316.4975257380865	2.5	A	nonviolation	1	0.5327429207973182
319.4974850178696	2.5	B	nonviolation	0	0.9157861792482436
322.4974501961842	2.5	B	violation	0	1.1558249285444615
325.4974399190396	2.5	A	violation	1	0.965841154102236
328.4973673997447	2.5	B	violation	1	0.7289141514338553
331.49731880100444	2.5	A	nonviolation	1	0.806956083048135
334.49728671973565	2.5	B	nonviolation	1	0.9789923513308167
337.4972372460179	2.5	A	nonviolation	1	0.8280380880460143
340.4972047288902	2.5	B	violation	1	0.9440674888901412
343.49715222511435	2.5	B	nonviolation	1	0.8311278498731554
346.4971214048564	2.5	B	violation	0	0.9691579211503268
349.49707455700263	2.5	A	nonviolation	1	1.0461996258236468
352.49703525891533	2.5	A	violation	1	0.742241722997278
355.49699880508706	2.5	B	violation	0	0.9132769079878926
358.4969517639838	2.5	A	nonviolation	1	0.6273368317633867
361.49691915512085	2.5	B	nonviolation	1	0.9893588027916848
364.49687783606356	2.5	B	nonviolation	1	2.4434026419185098
367.48014914616937	2.5	A	violation	1	0.7121462025679648
370.496785662137	2.5	A	violation	0	0.6454905858263373
373.4800649117678	2.5	A	nonviolation	1	0.8152162879705429
376.48002860695124	2.5	A	violation	1	0.9732506810687482
379.49666376598185	2.5	B	nonviolation	0	0.9826249461621046
382.47994371503586	2.5	A	nonviolation	1	0.6903322469443083
385.47989929514006	2.5	A	violation	1	0.8353861938230693
388.47985888412217	2.5	A	violation	1	0.6634251298382878
391.47982049593696	2.5	A	nonviolation	1	0.7694647111929953
394.47977924300363	2.5	A	violation	1	1.053503829985857
397.4797392850742	2.5	B	violation	1	0.9095430918969214
400.47969488613313	2.5	B	violation	1	0.9895902988500892
403.4796618679537	2.5	A	violation	1	0.5886367522180079
406.4796177879907	2.5	B	violation	0	0.8876663157716393
409.4795775320381	2.5	A	violation	0	0.7747072270140052
412.4795388039202	2.5	A	nonviolation	1	0.6527547752484679
415.47949721198535	2.5	A	nonviolation	1	0.91379306698218
418.47945526195684	2.5	A	nonviolation	1	1.182836389169097
421.479413815774	2.5	A	nonviolation	1	0.6608866080641747
424.4793725218624	2.5	B	nonviolation	0	1.3089143252000213
427.47932857694093	2.5	B	violation	1	1.0829638577997684
430.4792890120297	2.5	B	nonviolation	0	1.159996152855456
433.47925176378334	2.5	B	nonviolation	n/a	n/a
436.47920756274834	2.5	B	nonviolation	0	1.4601066033355892
439.479165981058	2.5	A	violation	1	0.6681268950924277
442.4791259127669	2.5	A	violation	1	0.6870871130377054
445.4790857490152	2.5	A	nonviolation	1	0.7612071558833122
448.47904573893175	2.5	A	violation	1	0.8672428750433028
451.4790022899397	2.5	A	nonviolation	1	0.5962854530662298
454.47896050196135	2.5	B	violation	1	0.9133348232135176
457.4789191037417	2.5	B	nonviolation	0	1.0033730012364686
460.47888144105667	2.5	B	violation	1	0.8564088079147041
463.4788373657502	2.5	A	nonviolation	1	0.6184560460969806
466.4787977109663	2.5	B	nonviolation	0	0.8464929470792413
469.4787561418489	2.5	B	nonviolation	0	0.8475382858887315
472.4787143799477	2.5	A	nonviolation	1	0.6785790268331766
475.4786725947634	2.5	B	nonviolation	0	0.9446283341385424
478.47863042913383	2.5	B	violation	1	0.8166665299795568
481.47859111987054	2.5	B	violation	1	0.5747042698785663
484.4785503451712	2.5	B	nonviolation	1	0.8097453308291733
487.47851002076635	2.5	A	nonviolation	n/a	n/a
490.47846890287474	2.5	B	nonviolation	1	0.8398297242820263
493.4784269630909	2.5	A	violation	1	0.6638778070919216
496.47838491015136	2.5	B	nonviolation	1	0.6679179179482162
499.47834512218833	2.5	B	violation	0	0.6379509805701673
502.47837351309136	2.5	B	violation	1	0.9139241129159928
505.47826070804155	2.5	A	violation	1	0.7470433418639004
508.47822204278776	2.5	A	violation	1	0.686077622231096
511.47817896492785	2.5	B	violation	1	1.0161216878332198
514.4781394037418	2.5	A	nonviolation	1	0.7981595383025706
517.4780981978402	2.5	B	nonviolation	1	0.7552104750648141
520.4781268360093	2.5	B	violation	0	0.9811736308038236
523.4780140188523	2.5	A	violation	1	1.1432854761369526
526.477980887983	2.5	A	violation	1	0.8563244789838791
529.4779418781401	2.5	A	nonviolation	1	0.7673648889176548
532.4779277089983	2.5	A	violation	1	0.8963753310963511
535.4778615860268	2.5	A	nonviolation	1	0.7914417209103703
538.4778222800232	2.5	B	nonviolation	0	0.8064807797782123
541.4777819858864	2.5	B	violation	0	0.7945251609198749
544.477726591751	2.5	A	nonviolation	1	0.9075764040462672
547.4776919600554	2.5	A	nonviolation	1	0.6896047340705991
550.477649115026	2.5	A	violation	1	0.8066586167551577
553.4776384760626	2.5	A	violation	1	0.7996652340516448
556.4775666277857	2.5	B	violation	0	0.7557495362125337
559.4775344091468	2.5	A	violation	1	0.6727672778069973
562.4774930928834	2.5	B	nonviolation	1	0.7608278328552842
565.4774452359417	2.5	B	nonviolation	0	1.1658582128584385
568.4774090051651	2.5	B	violation	0	0.6238951496779919
571.4773630020209	2.5	B	nonviolation	1	0.8219428039155899
574.4773215679453	2.5	A	nonviolation	1	0.7599829807877541
577.4772870461456	2.5	A	violation	1	0.5610134126618505
580.4772438681684	2.5	A	nonviolation	1	0.787060976959765
583.4772035758942	2.5	A	violation	1	0.6000973442569375
586.4771545431578	2.5	B	violation	0	0.7170810308307409
