onset	duration	trial_type	reward_condition	condition	repetition	pairmate	pairID	response_accuracy	response_time
13.50908240300123	2.5	scene	reward	violation	3	A	39	1	1.2295822519990909
16.00908240300123	3.0	feedback	n/a	n/a	n/a	n/a	n/a	n/a	n/a
19.507604620001075	2.5	scene	reward	nonviolation	3	A	62	1	0.6440584209994995
22.00760462000107	3.0	feedback	n/a	n/a	n/a	n/a	n/a	n/a	n/a
25.50773435800147	2.5	scene	reward	violation	3	A	24	1	0.5669347799994284
28.00773435800147	3.0	feedback	n/a	n/a	n/a	n/a	n/a	n/a	n/a
31.507250908998685	2.5	scene	neutral	violation	3	A	34	1	0.6054154600024049
34.007250908998685	3.0	feedback	n/a	n/a	n/a	n/a	n/a	n/a	n/a
37.506834151001385	2.5	scene	neutral	violation	3	A	19	1	0.5778373859975545
40.006834151001385	3.0	feedback	n/a	n/a	n/a	n/a	n/a	n/a	n/a
43.507348037001066	2.5	scene	neutral	violation	3	A	12	1	0.8653186759984237
46.007348037001066	3.0	feedback	n/a	n/a	n/a	n/a	n/a	n/a	n/a
49.50586441500128	2.5	scene	neutral	violation	3	A	2	1	0.7868048089985678
52.00586441500128	3.0	feedback	n/a	n/a	n/a	n/a	n/a	n/a	n/a
55.50537907300168	2.5	scene	neutral	violation	3	A	38	1	0.6401871669986576
58.00537907300168	3.0	feedback	n/a	n/a	n/a	n/a	n/a	n/a	n/a
61.50590924300196	2.5	scene	neutral	nonviolation	3	A	82	1	0.6037634989988874
64.00590924300195	3.0	feedback	n/a	n/a	n/a	n/a	n/a	n/a	n/a
67.50542316399878	2.5	scene	neutral	violation	3	A	7	1	1.1322512380029366
70.00542316399878	3.0	feedback	n/a	n/a	n/a	n/a	n/a	n/a	n/a
73.50494371500098	2.5	scene	neutral	nonviolation	3	A	67	1	0.6067283109987329
76.00494371500098	3.0	feedback	n/a	n/a	n/a	n/a	n/a	n/a	n/a
79.50548639000044	2.5	scene	neutral	nonviolation	3	A	87	1	0.7781919590015605
82.00548639000044	3.0	feedback	n/a	n/a	n/a	n/a	n/a	n/a	n/a
85.50398972000039	2.5	scene	reward	violation	3	A	31	1	0.6356112920002488
88.00398972000038	3.0	feedback	n/a	n/a	n/a	n/a	n/a	n/a	n/a
91.50451305000023	2.5	scene	reward	violation	3	A	28	1	0.6001539870012493
94.00451305000023	3.0	feedback	n/a	n/a	n/a	n/a	n/a	n/a	n/a
97.504041537999	2.5	scene	reward	nonviolation	3	A	68	1	0.5236494480013789
100.004041537999	3.0	feedback	n/a	n/a	n/a	n/a	n/a	n/a	n/a
103.50355770500029	2.5	scene	neutral	nonviolation	3	A	58	1	0.620052805999876
106.00355770500029	3.0	feedback	n/a	n/a	n/a	n/a	n/a	n/a	n/a
109.50347392000185	2.5	scene	neutral	nonviolation	3	A	77	1	0.8612039660001756
112.00347392000185	3.0	feedback	n/a	n/a	n/a	n/a	n/a	n/a	n/a
115.50339621700186	2.5	scene	reward	nonviolation	3	A	63	1	0.6532828029994562
118.00339621700186	3.0	feedback	n/a	n/a	n/a	n/a	n/a	n/a	n/a
121.50334488000227	2.5	scene	reward	violation	3	A	36	1	0.7423415269986435
124.00334488000227	3.0	feedback	n/a	n/a	n/a	n/a	n/a	n/a	n/a
127.50322894499914	2.5	scene	neutral	nonviolation	3	A	89	1	0.599452200000087
130.00322894499914	3.0	feedback	n/a	n/a	n/a	n/a	n/a	n/a	n/a
133.5031487609995	2.5	scene	neutral	violation	3	A	42	1	0.7255333329994755
136.0031487609995	3.0	feedback	n/a	n/a	n/a	n/a	n/a	n/a	n/a
139.5030763239993	2.5	scene	reward	violation	3	A	11	1	0.6776056340022478
142.0030763239993	3.0	feedback	n/a	n/a	n/a	n/a	n/a	n/a	n/a
145.5029945589995	2.5	scene	reward	violation	3	A	6	1	0.6216709069994977
148.0029945589995	3.0	feedback	n/a	n/a	n/a	n/a	n/a	n/a	n/a
151.5029106530019	2.5	scene	reward	violation	3	A	22	1	0.5937753719990724
154.0029106530019	3.0	feedback	n/a	n/a	n/a	n/a	n/a	n/a	n/a
157.5028326319989	2.5	scene	neutral	violation	3	A	16	1	0.6458532920005382
160.0028326319989	3.0	feedback	n/a	n/a	n/a	n/a	n/a	n/a	n/a
163.50275662900094	2.5	scene	reward	nonviolation	3	A	91	1	0.5269380589998036
166.00275662900094	3.0	feedback	n/a	n/a	n/a	n/a	n/a	n/a	n/a
169.502671672999	2.5	scene	reward	violation	3	A	44	1	0.6730102490000718
172.002671672999	3.0	feedback	n/a	n/a	n/a	n/a	n/a	n/a	n/a
175.50259224100228	2.5	scene	reward	nonviolation	3	A	73	1	0.5820918579993304
178.00259224100228	3.0	feedback	n/a	n/a	n/a	n/a	n/a	n/a	n/a
181.50251461600052	2.5	scene	reward	violation	3	A	14	1	0.6521676730008039
184.00251461600052	3.0	feedback	n/a	n/a	n/a	n/a	n/a	n/a	n/a
187.50244006600042	2.5	scene	reward	nonviolation	3	A	52	1	0.6252490879996913
190.00244006600042	3.0	feedback	n/a	n/a	n/a	n/a	n/a	n/a	n/a
193.5023535190012	2.5	scene	neutral	nonviolation	3	A	53	1	0.6353365750001103
196.0023535190012	3.0	feedback	n/a	n/a	n/a	n/a	n/a	n/a	n/a
199.50227243300102	2.5	scene	neutral	nonviolation	3	A	49	1	0.6364181629978702
202.00227243300102	3.0	feedback	n/a	n/a	n/a	n/a	n/a	n/a	n/a
205.50219961499897	2.5	scene	neutral	nonviolation	3	A	75	1	0.782493370003067
208.00219961499897	3.0	feedback	n/a	n/a	n/a	n/a	n/a	n/a	n/a
211.5021152180016	2.5	scene	neutral	nonviolation	3	A	60	1	0.5725780259999738
214.0021152180016	3.0	feedback	n/a	n/a	n/a	n/a	n/a	n/a	n/a
217.50204206700073	2.5	scene	reward	nonviolation	3	A	51	1	0.82565197599979
220.00204206700073	3.0	feedback	n/a	n/a	n/a	n/a	n/a	n/a	n/a
223.50195723599973	2.5	scene	neutral	nonviolation	3	A	90	1	0.573738768001931
226.00195723599973	3.0	feedback	n/a	n/a	n/a	n/a	n/a	n/a	n/a
229.50188028800042	2.5	scene	neutral	violation	3	A	27	1	0.5628156450002281
232.00188028800042	3.0	feedback	n/a	n/a	n/a	n/a	n/a	n/a	n/a
235.50179643299998	2.5	scene	reward	nonviolation	3	A	86	1	0.8139191240006767
238.00179643299998	3.0	feedback	n/a	n/a	n/a	n/a	n/a	n/a	n/a
241.50172037200173	2.5	scene	reward	violation	3	A	8	1	0.6949795219989028
244.00172037200173	3.0	feedback	n/a	n/a	n/a	n/a	n/a	n/a	n/a
247.50164395500175	2.5	scene	neutral	violation	3	A	43	1	0.8340553859998181
250.00164395500175	3.0	feedback	n/a	n/a	n/a	n/a	n/a	n/a	n/a
253.50156332999904	2.5	scene	reward	nonviolation	3	A	79	1	0.9111383039999056
256.00156332999904	3.0	feedback	n/a	n/a	n/a	n/a	n/a	n/a	n/a
259.50148845199874	2.5	scene	reward	violation	3	A	41	1	0.7162122240006283
262.00148845199874	3.0	feedback	n/a	n/a	n/a	n/a	n/a	n/a	n/a
265.5013972550005	2.5	scene	reward	nonviolation	3	A	83	1	0.5833010479982477
268.0013972550005	3.0	feedback	n/a	n/a	n/a	n/a	n/a	n/a	n/a
271.50132520199986	2.5	scene	neutral	nonviolation	3	A	69	1	0.63837518299988
274.00132520199986	3.0	feedback	n/a	n/a	n/a	n/a	n/a	n/a	n/a
277.50124468500144	2.5	scene	neutral	violation	3	A	17	1	0.6583844979977584
280.00124468500144	3.0	feedback	n/a	n/a	n/a	n/a	n/a	n/a	n/a
283.5011612849994	2.5	scene	reward	nonviolation	3	A	96	1	0.7535447070004011
286.0011612849994	3.0	feedback	n/a	n/a	n/a	n/a	n/a	n/a	n/a
289.5010782120007	2.5	scene	neutral	violation	3	A	25	1	0.6376188309986901
292.0010782120007	3.0	feedback	n/a	n/a	n/a	n/a	n/a	n/a	n/a
295.5010085620015	2.5	scene	reward	nonviolation	3	A	72	1	0.8876910929975566
298.0010085620015	3.0	feedback	n/a	n/a	n/a	n/a	n/a	n/a	n/a
301.5009190450001	2.5	scene	reward	nonviolation	4	A	73	1	0.5797852840005362
304.0009190450001	3.0	feedback	n/a	n/a	n/a	n/a	n/a	n/a	n/a
307.5008390309995	2.5	scene	reward	nonviolation	4	A	51	1	0.6178680090015405
310.0008390309995	3.0	feedback	n/a	n/a	n/a	n/a	n/a	n/a	n/a
313.50076490300125	2.5	scene	reward	violation	4	A	8	1	0.5839333809999516
316.00076490300125	3.0	feedback	n/a	n/a	n/a	n/a	n/a	n/a	n/a
319.500679372999	2.5	scene	reward	nonviolation	4	A	63	1	0.6030261000014434
322.000679372999	3.0	feedback	n/a	n/a	n/a	n/a	n/a	n/a	n/a
325.50060082300115	2.5	scene	neutral	violation	4	A	19	1	0.6211096629995154
328.00060082300115	3.0	feedback	n/a	n/a	n/a	n/a	n/a	n/a	n/a
331.4838475100005	2.5	scene	neutral	violation	4	A	27	1	0.5618612059988664
333.9838475100005	3.0	feedback	n/a	n/a	n/a	n/a	n/a	n/a	n/a
337.4837754830005	2.5	scene	reward	violation	4	A	39	1	0.5268671250014451
339.9837754830005	3.0	feedback	n/a	n/a	n/a	n/a	n/a	n/a	n/a
343.4836986379996	2.5	scene	neutral	nonviolation	4	A	69	1	0.5490171290002763
345.9836986379996	3.0	feedback	n/a	n/a	n/a	n/a	n/a	n/a	n/a
349.4836166720015	2.5	scene	reward	nonviolation	4	A	83	1	0.5550932939986524
351.9836166720015	3.0	feedback	n/a	n/a	n/a	n/a	n/a	n/a	n/a
355.4835372130001	2.5	scene	reward	violation	4	A	31	1	0.6581719060013711
357.9835372130001	3.0	feedback	n/a	n/a	n/a	n/a	n/a	n/a	n/a
361.48345803600023	2.5	scene	reward	violation	4	A	36	1	0.6882559949990537
363.98345803600023	3.0	feedback	n/a	n/a	n/a	n/a	n/a	n/a	n/a
367.4833769280012	2.5	scene	neutral	nonviolation	4	A	82	1	0.6043360670009861
369.9833769280012	3.0	feedback	n/a	n/a	n/a	n/a	n/a	n/a	n/a
373.48329532000207	2.5	scene	neutral	nonviolation	4	A	89	1	0.6023420899982739
375.98329532000207	3.0	feedback	n/a	n/a	n/a	n/a	n/a	n/a	n/a
379.48325251500137	2.5	scene	neutral	nonviolation	4	A	67	1	0.511461836998933
381.98325251500137	3.0	feedback	n/a	n/a	n/a	n/a	n/a	n/a	n/a
385.48313011000215	2.5	scene	reward	nonviolation	4	A	79	1	0.7555805629999668
387.98313011000215	3.0	feedback	n/a	n/a	n/a	n/a	n/a	n/a	n/a
391.4830608209995	2.5	scene	neutral	violation	4	A	34	1	0.6446555959992111
393.9830608209995	3.0	feedback	n/a	n/a	n/a	n/a	n/a	n/a	n/a
397.48297743500007	2.5	scene	reward	nonviolation	4	A	86	1	0.8137408469992806
399.98297743500007	3.0	feedback	n/a	n/a	n/a	n/a	n/a	n/a	n/a
403.4877846970012	2.5	scene	reward	violation	4	A	11	1	0.6009312409987615
405.9877846970012	3.0	feedback	n/a	n/a	n/a	n/a	n/a	n/a	n/a
409.487480844	2.5	scene	reward	violation	4	A	28	1	0.6872371159988688
411.987480844	3.0	feedback	n/a	n/a	n/a	n/a	n/a	n/a	n/a
415.487060866002	2.5	scene	reward	nonviolation	4	A	91	1	0.5596556739983498
417.987060866002	3.0	feedback	n/a	n/a	n/a	n/a	n/a	n/a	n/a
421.48686192799863	2.5	scene	reward	violation	4	A	41	1	0.6147904210010893
423.98686192799863	3.0	feedback	n/a	n/a	n/a	n/a	n/a	n/a	n/a
427.4825780889987	2.5	scene	reward	nonviolation	4	A	96	1	0.6421383910019358
429.9825780889987	3.0	feedback	n/a	n/a	n/a	n/a	n/a	n/a	n/a
433.48613174799897	2.5	scene	reward	violation	4	A	44	1	0.5505866000021342
435.98613174799897	3.0	feedback	n/a	n/a	n/a	n/a	n/a	n/a	n/a
439.48664206600006	2.5	scene	neutral	violation	4	A	2	1	0.7170727789998637
441.98664206600006	3.0	feedback	n/a	n/a	n/a	n/a	n/a	n/a	n/a
445.486210518	2.5	scene	reward	violation	4	A	24	1	0.6255112590006321
447.986210518	3.0	feedback	n/a	n/a	n/a	n/a	n/a	n/a	n/a
451.4860076080004	2.5	scene	neutral	violation	4	A	38	1	0.6777321920017131
453.9860076080004	3.0	feedback	n/a	n/a	n/a	n/a	n/a	n/a	n/a
457.48499842900134	2.5	scene	reward	nonviolation	4	A	62	1	0.5647294739974313
459.98499842900134	3.0	feedback	n/a	n/a	n/a	n/a	n/a	n/a	n/a
463.4855174180011	2.5	scene	reward	violation	4	A	14	1	0.7912050979975902
465.9855174180011	3.0	feedback	n/a	n/a	n/a	n/a	n/a	n/a	n/a
469.48509576300063	2.5	scene	reward	nonviolation	4	A	68	1	0.6956317539988959
471.98509576300063	3.0	feedback	n/a	n/a	n/a	n/a	n/a	n/a	n/a
475.48194427799893	2.5	scene	neutral	nonviolation	4	A	77	1	0.8377778430003673
477.98194427799893	3.0	feedback	n/a	n/a	n/a	n/a	n/a	n/a	n/a
481.4837941170008	2.5	scene	neutral	violation	4	A	17	1	0.6659277789985936
483.9837941170008	3.0	feedback	n/a	n/a	n/a	n/a	n/a	n/a	n/a
487.48408795800066	2.5	scene	neutral	nonviolation	4	A	53	1	0.6146621469997626
489.98408795800066	3.0	feedback	n/a	n/a	n/a	n/a	n/a	n/a	n/a
493.48261464100136	2.5	scene	neutral	nonviolation	4	A	90	1	0.6681124009992345
495.98261464100136	3.0	feedback	n/a	n/a	n/a	n/a	n/a	n/a	n/a
499.48289992900027	2.5	scene	neutral	nonviolation	4	A	49	1	0.5828303630005394
501.98289992900027	3.0	feedback	n/a	n/a	n/a	n/a	n/a	n/a	n/a
505.4834249300001	2.5	scene	reward	violation	4	A	22	1	0.5932995280018076
507.9834249300001	3.0	feedback	n/a	n/a	n/a	n/a	n/a	n/a	n/a
511.48193841000096	2.5	scene	neutral	violation	4	A	43	1	0.5627883749984903
513.981938410001	3.0	feedback	n/a	n/a	n/a	n/a	n/a	n/a	n/a
517.4824565220007	2.5	scene	reward	nonviolation	4	A	72	1	0.6002720920005231
519.9824565220007	3.0	feedback	n/a	n/a	n/a	n/a	n/a	n/a	n/a
523.4819650579993	2.5	scene	neutral	nonviolation	4	A	75	1	0.6607667759999458
525.9819650579993	3.0	feedback	n/a	n/a	n/a	n/a	n/a	n/a	n/a
529.4817759389989	2.5	scene	reward	violation	4	A	6	1	0.5969518260026234
531.9817759389989	3.0	feedback	n/a	n/a	n/a	n/a	n/a	n/a	n/a
535.481159545001	2.5	scene	reward	nonviolation	4	A	52	1	0.6425692230004643
537.981159545001	3.0	feedback	n/a	n/a	n/a	n/a	n/a	n/a	n/a
541.4816069449988	2.5	scene	neutral	nonviolation	4	A	60	1	0.5311217990019941
543.9816069449988	3.0	feedback	n/a	n/a	n/a	n/a	n/a	n/a	n/a
547.4809960640014	2.5	scene	neutral	violation	4	A	12	1	0.6577398279987392
549.9809960640014	3.0	feedback	n/a	n/a	n/a	n/a	n/a	n/a	n/a
553.4809226169999	2.5	scene	neutral	nonviolation	4	A	87	1	0.7608370560010371
555.9809226169999	3.0	feedback	n/a	n/a	n/a	n/a	n/a	n/a	n/a
559.4808372680018	2.5	scene	neutral	nonviolation	4	A	58	1	0.5778977720001421
561.9808372680018	3.0	feedback	n/a	n/a	n/a	n/a	n/a	n/a	n/a
565.4807641920015	2.5	scene	neutral	violation	4	A	16	1	0.5909737859983579
567.9807641920015	3.0	feedback	n/a	n/a	n/a	n/a	n/a	n/a	n/a
571.4806857850018	2.5	scene	neutral	violation	4	A	7	1	0.9410576189984567
573.9806857850018	3.0	feedback	n/a	n/a	n/a	n/a	n/a	n/a	n/a
577.480611160001	2.5	scene	neutral	violation	4	A	42	1	0.5861256210009742
579.980611160001	3.0	feedback	n/a	n/a	n/a	n/a	n/a	n/a	n/a
583.4805210939994	2.5	scene	neutral	violation	4	A	25	1	0.6062128670018865
585.9805210939994	3.0	feedback	n/a	n/a	n/a	n/a	n/a	n/a	n/a
