onset	duration	trial_type	condition	response_accuracy	response_time
13.514040096000825	2.5	A	violation	1	0.9190902100017412
16.514006912002515	2.5	A	nonviolation	1	0.8081115790009791
19.51396704000217	2.5	B	nonviolation	1	1.4571481829989352
22.513920626002804	2.5	A	violation	1	0.8870855589993879
25.51388837000195	2.5	A	nonviolation	1	0.603242806999333
28.513843512002488	2.5	B	nonviolation	0	1.3402797369999462
31.51380568000241	2.5	B	nonviolation	0	1.144307831000333
34.5137688850009	2.5	A	violation	1	0.8083520360014518
37.49705187900327	2.5	A	nonviolation	1	0.7220691129987244
40.49700479700185	2.5	A	nonviolation	1	0.7271134260008694
43.513645154002006	2.5	B	violation	1	1.3334719769991352
46.4969230960014	2.5	A	nonviolation	1	0.7401992869999958
49.513563482003526	2.5	B	violation	1	1.2085591559989552
52.513530080002965	2.5	B	violation	0	1.3745911400001205
55.51349013700019	2.5	B	violation	0	1.6856333850009833
58.49677408700154	2.5	A	nonviolation	1	0.9093446469996708
61.49673113700192	2.5	B	nonviolation	0	1.1923900629990385
64.49669042200185	2.5	B	nonviolation	1	1.6663581729990256
67.49664983300318	2.5	B	violation	1	1.7594764120003674
70.49660912000036	2.5	A	nonviolation	1	1.0785134690013365
73.49657444600234	2.5	A	nonviolation	1	0.6984728460010956
76.49652979100209	2.5	A	violation	1	0.5835913689988956
79.49648754000009	2.5	B	violation	1	2.106635600001028
82.49646630400095	2.5	A	violation	0	0.5816666329992586
85.49641834900103	2.5	B	nonviolation	0	1.5907032159993832
88.4963682330017	2.5	B	nonviolation	0	1.5227545849993476
91.49633268600157	2.5	B	nonviolation	1	1.8427913080013238
94.4962961650017	2.5	A	violation	1	0.6218337149985018
97.4962601920015	2.5	B	violation	1	1.2538699530014128
100.49625595100224	2.5	B	nonviolation	0	1.424899343997822
103.49618935100081	2.5	A	nonviolation	1	0.8929405039998528
106.49613802500244	2.5	A	violation	1	1.1569903589988826
109.49608717200316	2.5	A	nonviolation	1	0.7940413849973993
112.4960500940033	2.5	A	violation	1	0.9090762669984542
115.49600954500055	2.5	B	nonviolation	1	1.2990485139998782
118.49597507100044	2.5	B	nonviolation	1	1.7241568230019766
121.49594042600073	2.5	B	violation	1	1.4971061130017915
124.49590774700118	2.5	B	violation	0	1.6172212900019076
127.4958530770018	2.5	B	violation	1	1.18728252299843
130.49581268300244	2.5	A	violation	1	0.9652665219982736
133.49577707400022	2.5	B	violation	0	1.7803499680012465
136.49572923100277	2.5	A	nonviolation	1	0.7134027770007378
139.4956937570023	2.5	A	violation	1	1.074438318999455
142.49565386700124	2.5	A	violation	1	0.7674831440017442
145.49560421500064	2.5	A	violation	1	0.6835315190000983
148.4955632020028	2.5	A	nonviolation	1	0.7145886269972834
151.4955439510013	2.5	B	nonviolation	0	1.2725938590010628
154.495505537001	2.5	B	violation	0	1.2006314089994703
157.49545873400348	2.5	A	violation	1	0.7966762589967402
160.49541657900045	2.5	B	violation	1	1.2067184610023105
163.49537320500167	2.5	B	nonviolation	0	0.6377648140005476
166.4953351840013	2.5	A	nonviolation	1	0.9468066020017432
169.495285660003	2.5	A	nonviolation	1	0.7298645419978129
172.49524282700074	2.5	B	nonviolation	0	1.3208958340001118
175.49520513800235	2.5	B	violation	1	0.7339398109979811
178.49516930500252	2.5	B	nonviolation	1	1.6239640819985652
181.49511658100164	2.5	A	violation	1	0.6970237880013883
184.49508763300042	2.5	A	nonviolation	1	0.6799799979999079
187.49505029900317	2.5	B	nonviolation	0	1.2560871059977217
190.49500386	2.5	B	violation	1	1.3531348160031484
193.49496825300233	2.5	A	nonviolation	1	0.7021723949983425
196.4949312070021	2.5	B	violation	1	1.5742069340012677
199.49487864800176	2.5	A	violation	1	0.7582667030001176
202.49484024400226	2.5	B	violation	0	1.374299015998986
205.4948014540023	2.5	A	nonviolation	1	0.696341165999911
208.49475915800213	2.5	A	violation	1	0.671381948999624
211.49471852400168	2.5	A	nonviolation	1	0.6724184179984151
214.49468548300138	2.5	A	nonviolation	1	0.6404533700006141
217.49463493600345	2.5	A	nonviolation	1	0.9755123809991346
220.49460042900319	2.5	B	violation	0	1.4365467520001405
223.49455774500169	2.5	A	violation	1	0.6845857219996105
226.49451523600143	2.5	B	violation	1	1.3446305580000626
229.49447933800187	2.5	A	violation	1	0.999665688999812
232.49443988400157	2.5	B	nonviolation	0	1.3167104179992748
235.494401269003	2.5	A	nonviolation	1	0.6947392839974782
238.49435954500225	2.5	B	violation	1	1.0817875749999075
241.4943103010009	2.5	A	nonviolation	1	0.615837494002335
244.49428014300065	2.5	B	nonviolation	1	1.449867933999485
247.49423059600304	2.5	B	violation	1	1.3109174669989443
250.49418947800226	2.5	A	violation	1	0.6569562959994073
253.4941479480003	2.5	A	violation	1	0.6739971910028544
256.4941110980035	2.5	A	nonviolation	1	0.6130429029981315
259.494063872	2.5	B	violation	0	1.142084566003177
262.49402478900083	2.5	A	nonviolation	1	0.6400488159997622
265.49398466600184	2.5	A	violation	1	0.7621676140006457
268.49394457000017	2.5	B	nonviolation	0	1.1482042540010298
271.4939031190006	2.5	B	violation	0	1.2092433819998405
274.49386872500327	2.5	B	nonviolation	0	0.9252865460002796
277.49382837600206	2.5	B	nonviolation	0	1.3673254390014336
280.4937815810008	2.5	A	violation	1	0.9303814400009288
283.49374849500236	2.5	B	violation	0	1.4674003289983375
286.49370032000303	2.5	B	nonviolation	0	1.1874526510000578
289.4936563770025	2.5	A	violation	1	0.7784962480000104
292.493619349003	2.5	B	nonviolation	1	1.6645338479975182
295.49357689200036	2.5	B	nonviolation	0	1.2215752610027266
298.4935350070009	2.5	A	violation	1	0.8206226690017502
301.49350030500136	2.5	B	violation	1	1.0286752149986569
304.4934549390018	2.5	A	nonviolation	1	0.6355878780013882
307.4934131840018	2.5	A	violation	1	0.5747378330015636
310.49336973500255	2.5	B	violation	1	0.6217841859979671
313.4933295310002	2.5	B	violation	0	0.6438210510023055
316.49329155600213	2.5	B	nonviolation	0	1.055865520000225
319.4932506060032	2.5	B	nonviolation	0	1.177910520000296
322.493215327002	2.5	B	nonviolation	0	0.9239398909994634
325.49316742200244	2.5	A	violation	1	0.6409879979983089
328.493133406002	2.5	B	violation	1	0.969022730998404
331.49308568700144	2.5	B	nonviolation	0	1.0300749230009387
334.4930498940012	2.5	B	violation	1	0.5781093680016056
337.4930097060024	2.5	B	violation	1	0.8311443179991329
340.4929702640002	2.5	A	violation	1	0.5221864510021987
343.4929272160007	2.5	A	nonviolation	1	0.5612309040006949
346.49288268400045	2.5	A	violation	1	0.559275196003
349.4928402730002	2.5	B	nonviolation	0	1.1313174740025715
352.4928069170019	2.5	B	violation	0	1.0163504580013978
355.49275806100195	2.5	A	violation	1	0.8504069800001162
358.49272200300044	2.5	B	nonviolation	0	0.8854358220014547
361.4926761660026	2.5	B	nonviolation	0	0.6244891479982471
364.4926401000012	2.5	A	nonviolation	1	0.9905237290004152
367.492594102001	2.5	A	nonviolation	1	0.7885696529992856
370.4925603170013	2.5	B	nonviolation	1	0.973606405001192
373.49251953000197	2.5	A	violation	1	0.7335764240015124
376.49247670300247	2.5	A	violation	1	0.6076853329977894
379.4924372330024	2.5	B	violation	1	0.806732134999038
382.4923915690015	2.5	A	nonviolation	1	0.8047762339992914
385.4923509140026	2.5	A	violation	1	0.7128084149990173
388.4923067410018	2.5	A	nonviolation	1	0.5918556649994571
391.4922738280002	2.5	A	violation	1	0.6948934190004366
394.4922319130019	2.5	A	nonviolation	1	0.6628650120001112
397.4921906920026	2.5	B	nonviolation	1	0.9539763779976056
400.4921487690008	2.5	A	violation	1	0.6169425910011341
403.49210124000086	2.5	B	violation	1	1.5810634250010482
406.49206168600364	2.5	A	nonviolation	1	0.7261051209970901
409.49202787800095	2.5	B	nonviolation	1	0.7701466460021038
412.49198187500224	2.5	B	nonviolation	0	0.7281846260011662
415.49194538400116	2.5	B	violation	0	1.835170417001791
418.49189754100007	2.5	B	violation	0	0.9562735700019402
421.4918623500016	2.5	B	nonviolation	0	1.0253080000002228
424.4918110340004	2.5	A	violation	1	0.6273550030018669
427.49177535400304	2.5	A	nonviolation	1	0.6624017590002039
430.4917364520007	2.5	A	nonviolation	1	0.6344320740026888
433.4916995190033	2.5	B	violation	1	1.1354717340000209
436.49165319800164	2.5	A	nonviolation	1	0.6615184510010295
439.491609470002	2.5	A	nonviolation	1	0.7195517869986361
442.4915682770007	2.5	A	violation	1	1.242600224999478
445.4915265770032	2.5	A	nonviolation	1	0.6216393609975057
448.491485251001	2.5	A	nonviolation	1	0.7736940889990365
451.49144641100077	2.5	B	nonviolation	0	1.0206842430015968
454.4913953590003	2.5	B	nonviolation	0	1.0907807930016131
457.49136603700026	2.5	B	violation	1	1.1628029590028746
460.49133046500367	2.5	A	nonviolation	1	0.6808481609987211
463.4912810580025	2.5	B	nonviolation	1	0.9378661490009108
466.49124120300263	2.5	A	violation	1	1.0169350270007271
469.49120075700193	2.5	B	violation	1	0.7649800170001981
472.4911610140007	2.5	A	violation	1	0.7010170819994528
475.4911179660012	2.5	A	violation	1	0.676974333000544
478.4910854750015	2.5	B	violation	0	0.7690961930020421
481.4910365740034	2.5	A	nonviolation	1	0.7541504289984005
484.47432115800257	2.5	B	nonviolation	1	1.159857570000895
487.4742715310022	2.5	A	violation	1	0.6409074510011123
490.47424373500326	2.5	B	violation	1	1.4239370219984266
493.47419945	2.5	A	nonviolation	1	0.5659762310024234
496.4908363520008	2.5	B	nonviolation	1	1.0003756879996215
499.49079517600336	2.5	B	nonviolation	0	1.0533796189993154
502.4907491650009	2.5	B	violation	0	0.732427725000889
505.47403355400087	2.5	B	nonviolation	0	1.0561475499998778
508.473990904	2.5	A	nonviolation	1	0.6971916680013237
511.4739515730034	2.5	B	nonviolation	0	0.6692262379983731
514.4739185300023	2.5	A	violation	1	0.7432661610000649
517.4738729460005	2.5	B	nonviolation	0	0.914306138001848
520.4738365470002	2.5	A	nonviolation	1	0.5643476479999663
523.4737933710021	2.5	B	nonviolation	0	1.0293856649986992
526.4737481450029	2.5	A	nonviolation	1	0.7944350559992017
529.4737097180005	2.5	B	violation	1	1.361403771003097
532.4736619980032	2.5	B	violation	1	0.680518053999549
535.473622542002	2.5	A	violation	1	0.7114944720015046
538.4735812980034	2.5	B	violation	1	0.5866015559986408
541.4735455410009	2.5	A	nonviolation	1	0.591640307000489
544.4735084850035	2.5	B	violation	1	0.7515779419991304
547.4734653800006	2.5	B	violation	0	0.6636134790023789
550.4734234720017	2.5	A	nonviolation	1	0.5357621959992684
553.4734449150019	2.5	A	violation	1	0.6057414509996306
556.4733487690029	2.5	A	nonviolation	1	0.5588371019985061
559.4732963730021	2.5	A	violation	1	0.8098909750005987
562.4732626880032	2.5	A	violation	1	0.5679263269994408
565.4732169760027	2.5	A	violation	1	0.6709629719989607
568.4731744840028	2.5	B	violation	0	1.1570087939981022
571.4731473960019	2.5	A	violation	1	0.7760422520004795
574.4730902730007	2.5	A	violation	1	0.6170933749999676
577.473056132003	2.5	B	nonviolation	0	0.9031322739974712
580.4730131270007	2.5	B	nonviolation	1	0.9341778609996254
583.4729847080016	2.5	A	nonviolation	1	0.6602133019987377
586.472942239001	2.5	B	violation	0	0.7372512600013579
