onset	duration	trial_type	condition	repetition	pairmate	pairID	category	subcategory	response_accuracy	response_time
13.503984633000073	1	prelearning	violation	1	A	28	scene	outdoor	1	0.8537912399997367
16.50394434000009	1	prelearning	violation	1	A	31	scene	outdoor	1	0.521828486999766
19.50390645399966	1	prelearning	nonviolation	1	A	79	scene	indoor	1	0.4338669970002229
22.503866653999467	1	prelearning	violation	1	A	29	scene	outdoor	1	0.4659277540004041
25.50382444099978	1	prelearning	violation	1	B	27	scene	outdoor	1	0.4868976779998775
28.503783620999457	1	prelearning	nonviolation	1	A	76	scene	outdoor	1	0.4530038070006413
31.50375399899985	1	prelearning	violation	1	B	30	scene	indoor	1	0.4778849120002633
34.50370729199949	1	prelearning	violation	1	B	31	scene	indoor	1	0.5430733360008162
37.50366722400031	1	prelearning	violation	1	A	30	scene	indoor	1	0.5791855919997033
40.50362754700018	1	prelearning	violation	1	B	29	scene	indoor	1	0.4561567739992825
43.5035870900001	1	prelearning	violation	1	B	25	scene	indoor	1	0.5141982949999147
46.50354745499954	1	prelearning	nonviolation	1	A	77	scene	outdoor	1	0.6142335620006634
49.50350789599997	1	prelearning	nonviolation	1	A	75	scene	indoor	1	0.4282752760000221
52.503467972999715	1	prelearning	nonviolation	1	B	79	scene	indoor	1	0.5433887330000289
55.50342530099988	1	prelearning	nonviolation	1	B	80	scene	indoor	1	0.7123670660002972
58.50338774200009	1	prelearning	violation	1	A	32	scene	indoor	1	0.6384025870002006
61.50334484900032	1	prelearning	nonviolation	1	A	73	scene	indoor	1	0.5014427619998969
64.50330651799959	1	prelearning	violation	1	B	28	scene	outdoor	1	0.4904980040000737
67.50326764799956	1	prelearning	nonviolation	1	B	74	scene	outdoor	1	0.5665169520007112
70.50322724099988	1	prelearning	violation	1	B	32	scene	outdoor	1	0.6964807659996949
73.50318571699972	1	prelearning	violation	1	A	26	scene	indoor	1	0.5286018490005517
76.50314681500005	1	prelearning	nonviolation	1	A	78	scene	outdoor	1	0.4416368739994141
79.50310583200006	1	prelearning	violation	1	A	25	scene	indoor	1	0.49968388199977204
82.50306642000031	1	prelearning	nonviolation	1	B	73	scene	outdoor	1	0.5966355409991593
85.50302680099958	1	prelearning	nonviolation	1	B	75	scene	outdoor	1	0.8276856030006456
88.50298392300009	1	prelearning	nonviolation	1	A	80	scene	indoor	1	0.4907644089998939
91.50294564700016	1	prelearning	nonviolation	1	B	77	scene	indoor	1	0.7877590090001831
94.50290330299957	1	prelearning	nonviolation	1	A	74	scene	outdoor	1	0.5558859180000582
97.50286282100024	1	prelearning	violation	1	A	27	scene	outdoor	1	0.4620011359993441
100.50282471300034	1	prelearning	nonviolation	1	B	78	scene	indoor	1	0.7519632969997474
103.50278451000031	1	prelearning	nonviolation	1	B	76	scene	outdoor	1	0.5029489329999706
106.50274244399952	1	prelearning	violation	1	B	26	scene	outdoor	1	0.9990468519999922
109.50270441599967	1	learning	violation	2	A	25	scene	indoor	1	0.4370816740001828
112.5026635060003	1	learning	violation	2	B	25	scene	indoor	1	0.4451274209995972
115.50262313199984	1	learning	violation	2	A	26	scene	indoor	1	0.6261690230003296
118.50257979100023	1	learning	violation	2	B	26	scene	outdoor	0	0.4192455459997291
121.50254017899988	1	learning	violation	2	A	27	scene	outdoor	1	0.5602514949996475
124.50250145700012	1	learning	violation	2	B	27	scene	outdoor	1	0.5683321469996372
127.50246133099972	1	learning	nonviolation	2	A	73	scene	indoor	1	0.6123286570000346
130.50242087399963	1	learning	nonviolation	2	B	73	scene	outdoor	1	0.5183682599999884
133.50238033499954	1	learning	nonviolation	2	A	74	scene	outdoor	1	0.6444183809999231
136.5023396329998	1	learning	nonviolation	2	B	74	scene	outdoor	1	0.4924588149997362
139.5022987049997	1	learning	violation	3	A	25	scene	indoor	1	0.4934898239998802
142.50225793299978	1	learning	violation	3	B	25	scene	indoor	1	0.5195024630002081
145.50221825599962	1	learning	violation	2	A	28	scene	outdoor	1	0.3335821320006289
148.50217726000028	1	learning	violation	2	B	28	scene	outdoor	1	0.4916233189997001
151.50213898699982	1	learning	nonviolation	2	A	75	scene	indoor	1	0.4726651700002549
154.50209667499985	1	learning	nonviolation	2	B	75	scene	outdoor	1	0.4127758430004178
157.50205398799972	1	learning	violation	2	A	29	scene	outdoor	1	0.4627369730005739
160.50201447099968	1	learning	violation	2	B	29	scene	indoor	1	0.7577850269999544
163.50197497199954	1	learning	nonviolation	2	A	76	scene	outdoor	1	0.4418193970004721
166.5019337659996	1	learning	nonviolation	2	B	76	scene	outdoor	1	0.4728605110003628
169.50189362800032	1	learning	nonviolation	3	A	75	scene	indoor	1	0.3829056509994189
172.50185310599952	1	learning	nonviolation	3	B	75	scene	outdoor	1	0.5089490000000296
175.50181182799955	1	learning	violation	2	A	30	scene	indoor	1	0.6219629990000612
178.5017756919997	1	learning	violation	2	B	30	scene	indoor	1	0.5980266360002133
181.50172944800036	1	learning	violation	2	A	31	scene	outdoor	1	0.7470024279991776
184.50168984099946	1	learning	violation	2	B	31	scene	indoor	1	0.7581098000000566
187.50165017699962	1	learning	nonviolation	3	A	73	scene	indoor	1	0.5741447910004354
190.50160873000004	1	learning	nonviolation	3	B	73	scene	outdoor	1	0.4221922329998051
193.50156874999996	1	learning	violation	3	A	27	scene	outdoor	1	0.5252271879999171
196.5015279070003	1	learning	violation	3	B	27	scene	outdoor	1	0.5192811499991876
199.5014925989999	1	learning	violation	3	A	30	scene	indoor	1	0.4873144909997791
202.5014466980001	1	learning	violation	3	B	30	scene	indoor	1	0.50435521899999
205.501405821	1	learning	violation	2	A	32	scene	indoor	1	0.6864038060002713
208.50136463499985	1	learning	violation	2	B	32	scene	outdoor	1	0.5674411110003348
211.50132731099984	1	learning	violation	4	A	25	scene	indoor	1	0.8434749210000518
214.50128161900008	1	learning	violation	4	B	25	scene	indoor	1	0.4825180829993769
217.50124297899947	1	learning	nonviolation	3	A	74	scene	outdoor	1	0.6655688950004333
220.5012024830003	1	learning	nonviolation	3	B	74	scene	outdoor	1	0.5866016109994234
223.50116146199983	1	learning	violation	3	A	26	scene	indoor	1	0.4026409819998662
226.50112096300015	1	learning	violation	3	B	26	scene	outdoor	1	0.6516853160001119
229.50107799499986	1	learning	violation	4	A	30	scene	indoor	1	0.5007292000000234
232.5010392180002	1	learning	violation	4	B	30	scene	indoor	1	0.4437881619996915
235.5009985910001	1	learning	nonviolation	4	A	74	scene	outdoor	1	0.95481202999963
238.50095768800017	1	learning	nonviolation	4	B	74	scene	outdoor	1	0.4848548549998668
241.5009170209996	1	learning	nonviolation	3	A	76	scene	outdoor	1	0.4858954230003292
244.5008767170002	1	learning	nonviolation	3	B	76	scene	outdoor	1	0.454927248999411
247.50083409299987	1	learning	violation	3	A	28	scene	outdoor	1	0.5379707860001872
250.50079206200007	1	learning	violation	3	B	28	scene	outdoor	1	0.4840279959998952
253.50075440799992	1	learning	nonviolation	4	A	73	scene	indoor	1	0.4980537860001277
256.5007132170004	1	learning	nonviolation	4	B	73	scene	outdoor	1	0.519089614999757
259.50067290100014	1	learning	violation	4	A	27	scene	outdoor	1	0.4751372319997245
262.5006297950004	1	learning	violation	4	B	27	scene	outdoor	1	0.43816312099988863
265.50059134599996	1	violation	violation	5	A	25	scene	indoor	1	0.5992205239999748
268.50055049599996	1	violation	violation	1	X	25	face	female	1	0.4852725390001069
271.50050893899964	1	learning	violation	3	A	29	scene	outdoor	1	0.6123165569997582
274.50046791600016	1	learning	violation	3	B	29	scene	indoor	1	0.5632595229999424
277.50043403099966	1	learning	nonviolation	4	A	75	scene	indoor	1	0.5982979150003302
280.5003871930003	1	learning	nonviolation	4	B	75	scene	outdoor	1	0.5684218079995844
283.500345937	1	violation	violation	5	A	27	scene	outdoor	1	0.6004721700001028
286.5003054460003	1	violation	violation	1	X	27	face	male	1	0.6765715439996711
289.5002647629999	1	learning	violation	3	A	32	scene	indoor	1	0.5015614149997418
292.5002238629995	1	learning	violation	3	B	32	scene	outdoor	1	0.5016082660004031
295.500183098	1	violation	violation	5	A	30	scene	indoor	1	0.6146288090003509
298.50014180699964	1	violation	violation	1	X	30	face	female	1	0.8886655639998935
301.500101654	1	learning	violation	4	A	28	scene	outdoor	1	0.6057275269995444
304.5000606029998	1	learning	violation	4	B	28	scene	outdoor	1	0.4527542440000616
307.5000209640002	1	learning	violation	3	A	31	scene	outdoor	1	0.5917911039996397
310.4999786580001	1	learning	violation	3	B	31	scene	indoor	1	0.5208353629996054
313.4999376549995	1	restudy	violation	5	B	30	scene	indoor	0	0.7748759960004463
316.49989658399954	1	restudy	violation	5	B	27	scene	outdoor	1	0.4959314510006152
319.49985552399994	1	learning	violation	4	A	29	scene	outdoor	1	0.4289615269999558
322.49981432299955	1	learning	violation	4	B	29	scene	indoor	1	0.4180019600007654
325.4997774619997	1	restudy	nonviolation	5	B	73	scene	outdoor	1	0.7250387750000301
328.499732755	1	restudy	nonviolation	5	B	74	scene	outdoor	1	0.5320787079999718
331.4996918349998	1	learning	violation	4	A	26	scene	indoor	1	0.497126567000123
334.4996518569997	1	learning	violation	4	B	26	scene	outdoor	1	0.5432018540004719
337.48294529299983	1	learning	nonviolation	4	A	76	scene	outdoor	1	0.6528746980002325
340.4829030499996	1	learning	nonviolation	4	B	76	scene	outdoor	1	0.4709333710006831
343.48286012399967	1	restudy	nonviolation	6	B	74	scene	outdoor	1	0.3599557320003441
346.4828192619998	1	violation	violation	5	A	29	scene	outdoor	1	0.5030089199999566
349.4827776619996	1	violation	violation	1	X	29	face	female	1	0.5490409620006176
352.48273787200014	1	violation	violation	5	A	26	scene	indoor	1	0.41510691599978605
355.4826959149996	1	violation	violation	1	X	26	face	male	n/a	n/a
358.48266095399964	1	restudy	violation	5	B	25	scene	indoor	1	0.3741610000006403
361.482614216	1	violation	violation	5	A	28	scene	outdoor	1	0.5052100229995631
364.4825728730002	1	violation	violation	1	X	28	face	male	1	0.6191082010000173
367.4825320970003	1	restudy	nonviolation	5	B	75	scene	outdoor	1	0.4922972969998227
370.4824943739995	1	restudy	violation	5	B	26	scene	outdoor	1	0.4513293050003994
373.48245089200014	1	violation	violation	6	A	27	scene	outdoor	1	0.4593608479999602
376.4824108390003	1	violation	violation	1	Y	27	face	male	1	0.5463322589994277
379.482370615	1	restudy	violation	5	B	29	scene	indoor	1	0.6665285290000611
382.48233063499987	1	learning	violation	4	A	31	scene	outdoor	1	0.8724892319996798
385.48228814099997	1	learning	violation	4	B	31	scene	indoor	1	0.5415390890002527
388.4822487519996	1	learning	violation	4	A	32	scene	indoor	1	0.5835026990007464
391.4822075940001	1	learning	violation	4	B	32	scene	outdoor	0	0.6335841889995208
394.48216666800005	1	violation	violation	6	A	29	scene	outdoor	1	0.6486569420003434
397.4821255480001	1	violation	violation	1	Y	29	face	female	1	0.5486493159996826
400.482084876	1	learning	nonviolation	2	A	77	scene	outdoor	1	0.6107367360000353
403.4820438629995	1	learning	nonviolation	2	B	77	scene	indoor	1	0.4447877780003182
406.4820026219995	1	violation	violation	6	A	30	scene	indoor	1	0.4678213500001221
409.4819606390002	1	violation	violation	1	Y	30	face	female	1	0.4778719989999445
412.48192055500016	1	restudy	nonviolation	6	B	73	scene	outdoor	0	0.4859134369999083
415.4818800940002	1	restudy	nonviolation	5	B	76	scene	outdoor	1	0.6029500229997211
418.4818393719997	1	violation	violation	5	A	31	scene	outdoor	1	0.5889857239999401
421.48179553899985	1	violation	violation	1	X	31	face	female	1	0.4390305560000343
424.4817561529999	1	restudy	violation	5	B	28	scene	outdoor	1	0.5160824940003295
427.4817156259997	1	restudy	violation	6	B	30	scene	indoor	1	0.4891971370007013
430.48167473099966	1	restudy	violation	6	B	27	scene	outdoor	1	0.5130362090003473
433.48163369800017	1	learning	nonviolation	2	A	78	scene	outdoor	0	0.2341989079995983
436.48159465499975	1	learning	nonviolation	2	B	78	scene	indoor	1	0.4812332910005353
439.48155194999987	1	learning	nonviolation	2	A	79	scene	indoor	1	0.4061981080003534
442.48151078199953	1	learning	nonviolation	2	B	79	scene	indoor	1	0.5573281900005895
445.48146959600035	1	learning	nonviolation	2	A	80	scene	indoor	1	0.6883804739991319
448.481428821	1	learning	nonviolation	2	B	80	scene	indoor	1	0.5033310700000584
451.4813873869998	1	violation	violation	6	A	25	scene	indoor	1	0.4574542580003254
454.481346224	1	violation	violation	1	Y	25	face	female	1	0.4844915550002042
457.4813052979998	1	restudy	violation	6	B	29	scene	indoor	1	0.4655350829998497
460.4812717940004	1	restudy	nonviolation	6	B	75	scene	outdoor	1	0.4065578329991695
463.4812235930003	1	restudy	nonviolation	6	B	76	scene	outdoor	1	0.6306073639998431
466.4811824850003	1	violation	violation	6	A	26	scene	indoor	1	0.4405899409994163
469.4811414919996	1	violation	violation	1	Y	26	face	male	0	0.4577778000002581
472.481099873	1	restudy	violation	6	B	25	scene	indoor	1	0.5177445489998718
475.48105751400004	1	learning	nonviolation	3	A	78	scene	outdoor	1	0.4597782740002003
478.48101788199983	1	learning	nonviolation	3	B	78	scene	indoor	1	0.4688180080001985
481.48097721500017	1	violation	violation	5	A	32	scene	indoor	1	0.5038669969999319
484.4809358479997	1	violation	violation	1	X	32	face	male	1	0.6409809329998097
487.480895234	1	violation	violation	6	A	28	scene	outdoor	1	0.4639411850002944
490.48085285500014	1	violation	violation	1	Y	28	face	male	1	0.4249913999992714
493.48081279699994	1	learning	nonviolation	3	A	77	scene	outdoor	1	0.6500316100000418
496.4807724679995	1	learning	nonviolation	3	B	77	scene	indoor	1	0.4820619720003378
499.4807304349997	1	learning	nonviolation	3	A	79	scene	indoor	1	0.5421087419999822
502.48068951199997	1	learning	nonviolation	3	B	79	scene	indoor	1	0.5311535399996501
505.48064655699994	1	learning	nonviolation	3	A	80	scene	indoor	1	0.7011895639998329
508.4806058499999	1	learning	nonviolation	3	B	80	scene	indoor	0	0.4982304679997469
511.4805645179995	1	restudy	violation	5	B	31	scene	indoor	1	0.5092787210005554
514.4805232170002	1	learning	nonviolation	4	A	78	scene	outdoor	1	0.5233466700001372
517.4804835530003	1	learning	nonviolation	4	B	78	scene	indoor	1	0.558361968999634
520.4804432190003	1	learning	nonviolation	4	A	80	scene	indoor	1	0.6303169069997239
523.4804013739995	1	learning	nonviolation	4	B	80	scene	indoor	1	0.4984463500004495
526.4803608120001	1	restudy	violation	5	B	32	scene	outdoor	1	0.6054839039998114
529.4803197969995	1	learning	nonviolation	4	A	79	scene	indoor	1	0.398525644000074
532.4802783269996	1	learning	nonviolation	4	B	79	scene	indoor	1	0.4816025509999236
535.4802373419998	1	restudy	nonviolation	5	B	80	scene	indoor	1	0.5596114959998886
538.4801947180003	1	learning	nonviolation	4	A	77	scene	outdoor	0	0.5366520329998821
541.4801535569995	1	learning	nonviolation	4	B	77	scene	indoor	1	0.5686994860006962
544.4801142249999	1	restudy	nonviolation	5	B	78	scene	indoor	1	0.6097300700002961
547.4800728769997	1	restudy	nonviolation	5	B	79	scene	indoor	1	0.5387476720006816
550.480029112	1	restudy	violation	6	B	28	scene	outdoor	0	0.6178368099999716
553.4799913019997	1	restudy	violation	6	B	26	scene	outdoor	1	0.7038534049997907
556.4799499279998	1	restudy	nonviolation	5	B	77	scene	indoor	1	0.5228992540005493
559.4799080499997	1	restudy	nonviolation	6	B	78	scene	indoor	1	0.5879449989997738
562.4798677170002	1	restudy	nonviolation	6	B	79	scene	indoor	1	0.557985273999293
565.4798286839996	1	violation	violation	6	A	31	scene	outdoor	1	0.4600249479999548
568.4797830110001	1	violation	violation	1	Y	31	face	female	0	0.4600692359999812
571.4797445719996	1	restudy	nonviolation	6	B	80	scene	indoor	1	0.4891006570005629
574.4797038030001	1	violation	violation	6	A	32	scene	indoor	1	0.4951426999996329
577.4796623989996	1	violation	violation	1	Y	32	face	male	1	0.5331830720006111
580.4796213	1	restudy	nonviolation	6	B	77	scene	indoor	0	1.4622270299996671
583.4795775160002	1	restudy	violation	6	B	31	scene	indoor	1	0.5692770999994536
586.4795367209999	1	restudy	violation	6	B	32	scene	outdoor	1	0.7433148950003671
