onset	duration	trial_type	reward_condition	condition	repetition	pairmate	pairID	response_accuracy	response_time
13.51760858716443	2.5	scene	reward	violation	3	A	11	1	0.6022188868373632
16.017608587164432	3.0	feedback	n/a	n/a	n/a	n/a	n/a	n/a	n/a
19.500860491301864	2.5	scene	neutral	violation	3	A	34	1	0.6409752247855067
22.000860491301864	3.0	feedback	n/a	n/a	n/a	n/a	n/a	n/a	n/a
25.500785122159872	2.5	scene	reward	nonviolation	3	A	53	1	0.6880508200265467
28.000785122159872	3.0	feedback	n/a	n/a	n/a	n/a	n/a	n/a	n/a
31.50071003101766	2.5	scene	reward	violation	3	A	31	1	0.576124413870275
34.00071003101766	3.0	feedback	n/a	n/a	n/a	n/a	n/a	n/a	n/a
37.50062991399318	2.5	scene	reward	nonviolation	3	A	80	1	0.8220799351111054
40.00062991399318	3.0	feedback	n/a	n/a	n/a	n/a	n/a	n/a	n/a
43.500551762990646	2.5	scene	neutral	nonviolation	3	A	87	1	0.5582882952876389
46.000551762990646	3.0	feedback	n/a	n/a	n/a	n/a	n/a	n/a	n/a
49.500472242943935	2.5	scene	reward	violation	3	A	19	1	0.5833610333502293
52.000472242943935	3.0	feedback	n/a	n/a	n/a	n/a	n/a	n/a	n/a
55.50039306189865	2.5	scene	neutral	violation	3	A	17	1	0.5584450489841402
58.00039306189865	3.0	feedback	n/a	n/a	n/a	n/a	n/a	n/a	n/a
61.500317192170776	2.5	scene	reward	nonviolation	3	A	78	1	0.5205238708294928
64.00031719217077	3.0	feedback	n/a	n/a	n/a	n/a	n/a	n/a	n/a
67.50455256691203	2.5	scene	neutral	nonviolation	3	A	79	1	0.8612727010622621
70.00455256691203	3.0	feedback	n/a	n/a	n/a	n/a	n/a	n/a	n/a
73.50506963394581	2.5	scene	reward	nonviolation	3	A	49	1	0.7807679353281856
76.00506963394581	3.0	feedback	n/a	n/a	n/a	n/a	n/a	n/a	n/a
79.50458774110302	2.5	scene	neutral	nonviolation	3	A	66	1	0.6492509660311043
82.00458774110302	3.0	feedback	n/a	n/a	n/a	n/a	n/a	n/a	n/a
85.50412337388843	2.5	scene	neutral	nonviolation	3	A	58	1	1.0017174193635583
88.00412337388843	3.0	feedback	n/a	n/a	n/a	n/a	n/a	n/a	n/a
91.5039287521504	2.5	scene	reward	nonviolation	3	A	71	1	0.600912056863308
94.0039287521504	3.0	feedback	n/a	n/a	n/a	n/a	n/a	n/a	n/a
97.50372992921619	2.5	scene	reward	nonviolation	3	A	86	1	0.8981128078885376
100.00372992921619	3.0	feedback	n/a	n/a	n/a	n/a	n/a	n/a	n/a
103.50347011117263	2.5	scene	neutral	violation	3	A	4	1	0.6173761920072138
106.00347011117263	3.0	feedback	n/a	n/a	n/a	n/a	n/a	n/a	n/a
109.4996971799992	2.5	scene	reward	violation	3	A	38	1	0.5391428652219474
111.9996971799992	3.0	feedback	n/a	n/a	n/a	n/a	n/a	n/a	n/a
115.49961562501268	2.5	scene	reward	nonviolation	3	A	61	1	0.7672356842085719
117.99961562501268	3.0	feedback	n/a	n/a	n/a	n/a	n/a	n/a	n/a
121.50264100311323	2.5	scene	reward	nonviolation	3	A	92	1	0.5872075287625194
124.00264100311323	3.0	feedback	n/a	n/a	n/a	n/a	n/a	n/a	n/a
127.50242262892424	2.5	scene	neutral	nonviolation	3	A	95	1	0.6454286789521575
130.00242262892422	3.0	feedback	n/a	n/a	n/a	n/a	n/a	n/a	n/a
133.5017401012592	2.5	scene	reward	violation	3	A	2	1	0.9341320828534664
136.0017401012592	3.0	feedback	n/a	n/a	n/a	n/a	n/a	n/a	n/a
139.50154032325372	2.5	scene	reward	nonviolation	3	A	57	1	0.5513098668307066
142.00154032325372	3.0	feedback	n/a	n/a	n/a	n/a	n/a	n/a	n/a
145.50105550512671	2.5	scene	neutral	nonviolation	3	A	52	1	0.7617950430139899
148.00105550512671	3.0	feedback	n/a	n/a	n/a	n/a	n/a	n/a	n/a
151.49914751201868	2.5	scene	neutral	violation	3	A	41	1	0.6557110529392958
153.99914751201868	3.0	feedback	n/a	n/a	n/a	n/a	n/a	n/a	n/a
157.49906548298898	2.5	scene	neutral	nonviolation	3	A	51	1	0.7197833880782127
159.99906548298898	3.0	feedback	n/a	n/a	n/a	n/a	n/a	n/a	n/a
163.50070135528222	2.5	scene	reward	violation	3	A	18	1	0.715152058750391
166.00070135528222	3.0	feedback	n/a	n/a	n/a	n/a	n/a	n/a	n/a
169.5002054120414	2.5	scene	neutral	nonviolation	3	A	72	1	0.6506480518728495
172.0002054120414	3.0	feedback	n/a	n/a	n/a	n/a	n/a	n/a	n/a
175.49949973728508	2.5	scene	neutral	nonviolation	3	A	63	1	0.6903577116318047
177.99949973728508	3.0	feedback	n/a	n/a	n/a	n/a	n/a	n/a	n/a
181.49925839528441	2.5	scene	neutral	violation	3	A	16	1	0.7594721568748355
183.99925839528441	3.0	feedback	n/a	n/a	n/a	n/a	n/a	n/a	n/a
187.49978823913258	2.5	scene	neutral	nonviolation	3	A	75	1	0.76806531380862
189.99978823913258	3.0	feedback	n/a	n/a	n/a	n/a	n/a	n/a	n/a
193.4985918062739	2.5	scene	neutral	nonviolation	3	A	93	1	0.533266284968704
195.9985918062739	3.0	feedback	n/a	n/a	n/a	n/a	n/a	n/a	n/a
199.4985132641159	2.5	scene	reward	nonviolation	3	A	91	1	0.7063448219560087
201.9985132641159	3.0	feedback	n/a	n/a	n/a	n/a	n/a	n/a	n/a
205.49844496510926	2.5	scene	neutral	violation	3	A	25	1	0.6224082349799573
207.99844496510926	3.0	feedback	n/a	n/a	n/a	n/a	n/a	n/a	n/a
211.4983495683409	2.5	scene	reward	violation	3	A	42	1	0.5523944175802171
213.9983495683409	3.0	feedback	n/a	n/a	n/a	n/a	n/a	n/a	n/a
217.49827788118276	2.5	scene	neutral	violation	3	A	21	1	0.6845788797363639
219.99827788118276	3.0	feedback	n/a	n/a	n/a	n/a	n/a	n/a	n/a
223.49818949121982	2.5	scene	neutral	nonviolation	3	A	85	1	0.6636793180368841
225.99818949121982	3.0	feedback	n/a	n/a	n/a	n/a	n/a	n/a	n/a
229.49811160098758	2.5	scene	reward	nonviolation	3	A	84	1	0.7417515371926129
231.99811160098758	3.0	feedback	n/a	n/a	n/a	n/a	n/a	n/a	n/a
235.49804816115648	2.5	scene	reward	violation	3	A	6	1	0.6348132928833365
237.99804816115648	3.0	feedback	n/a	n/a	n/a	n/a	n/a	n/a	n/a
241.4979546619579	2.5	scene	reward	violation	3	A	28	1	0.5479026432149112
243.9979546619579	3.0	feedback	n/a	n/a	n/a	n/a	n/a	n/a	n/a
247.49787373328581	2.5	scene	neutral	violation	3	A	13	1	0.8509890399873257
249.99787373328581	3.0	feedback	n/a	n/a	n/a	n/a	n/a	n/a	n/a
253.49779248423874	2.5	scene	reward	violation	3	A	39	1	0.6640722458250821
255.99779248423874	3.0	feedback	n/a	n/a	n/a	n/a	n/a	n/a	n/a
259.497733799275	2.5	scene	neutral	violation	3	A	32	1	0.7461327859200537
261.997733799275	3.0	feedback	n/a	n/a	n/a	n/a	n/a	n/a	n/a
265.4976509111002	2.5	scene	reward	violation	3	A	46	1	0.8052153801545501
267.9976509111002	3.0	feedback	n/a	n/a	n/a	n/a	n/a	n/a	n/a
271.4975630179979	2.5	scene	neutral	violation	3	A	40	1	0.6613056729547679
273.9975630179979	3.0	feedback	n/a	n/a	n/a	n/a	n/a	n/a	n/a
277.49749484891066	2.5	scene	neutral	violation	3	A	3	1	0.8363665253855288
279.99749484891066	3.0	feedback	n/a	n/a	n/a	n/a	n/a	n/a	n/a
283.497405692935	2.5	scene	neutral	violation	3	A	45	1	0.7254596850834787
285.997405692935	3.0	feedback	n/a	n/a	n/a	n/a	n/a	n/a	n/a
289.49732452724135	2.5	scene	reward	violation	3	A	10	1	0.6135408086702228
291.99732452724135	3.0	feedback	n/a	n/a	n/a	n/a	n/a	n/a	n/a
295.49723738804465	2.5	scene	reward	nonviolation	3	A	69	1	0.6306270649656653
297.99723738804465	3.0	feedback	n/a	n/a	n/a	n/a	n/a	n/a	n/a
301.49717910028994	2.5	scene	neutral	nonviolation	4	A	66	1	0.7036869879812002
303.99717910028994	3.0	feedback	n/a	n/a	n/a	n/a	n/a	n/a	n/a
307.49707813607534	2.5	scene	neutral	violation	4	A	17	1	0.5697942432016134
309.99707813607534	3.0	feedback	n/a	n/a	n/a	n/a	n/a	n/a	n/a
313.49701964622363	2.5	scene	neutral	nonviolation	4	A	63	1	0.5728516099043189
315.99701964622363	3.0	feedback	n/a	n/a	n/a	n/a	n/a	n/a	n/a
319.4969421592541	2.5	scene	neutral	violation	4	A	34	1	0.6489299628883599
321.9969421592541	3.0	feedback	n/a	n/a	n/a	n/a	n/a	n/a	n/a
325.49683884810656	2.5	scene	neutral	violation	4	A	25	1	0.5420197979547083
327.99683884810656	3.0	feedback	n/a	n/a	n/a	n/a	n/a	n/a	n/a
331.49676701705897	2.5	scene	neutral	violation	4	A	32	1	0.6271096752025187
333.99676701705897	3.0	feedback	n/a	n/a	n/a	n/a	n/a	n/a	n/a
337.4966821842827	2.5	scene	reward	nonviolation	4	A	57	1	0.5380165097303689
339.9966821842827	3.0	feedback	n/a	n/a	n/a	n/a	n/a	n/a	n/a
343.49660717323417	2.5	scene	neutral	nonviolation	4	A	72	1	0.6462686988525093
345.99660717323417	3.0	feedback	n/a	n/a	n/a	n/a	n/a	n/a	n/a
349.4965206962079	2.5	scene	reward	nonviolation	4	A	49	1	0.4063563807867467
351.9965206962079	3.0	feedback	n/a	n/a	n/a	n/a	n/a	n/a	n/a
355.4964532190934	2.5	scene	reward	violation	4	A	6	1	0.5484340027906001
357.9964532190934	3.0	feedback	n/a	n/a	n/a	n/a	n/a	n/a	n/a
361.49636261723936	2.5	scene	reward	violation	4	A	46	1	0.6455151350237429
363.99636261723936	3.0	feedback	n/a	n/a	n/a	n/a	n/a	n/a	n/a
367.4962818189524	2.5	scene	reward	nonviolation	4	A	53	1	0.8705284083262086
369.9962818189524	3.0	feedback	n/a	n/a	n/a	n/a	n/a	n/a	n/a
373.4962137150578	2.5	scene	neutral	violation	4	A	13	1	0.6146638328209519
375.9962137150578	3.0	feedback	n/a	n/a	n/a	n/a	n/a	n/a	n/a
379.4961318853311	2.5	scene	reward	nonviolation	4	A	71	1	0.5476741567254066
381.9961318853311	3.0	feedback	n/a	n/a	n/a	n/a	n/a	n/a	n/a
385.4960441519506	2.5	scene	neutral	nonviolation	4	A	79	1	0.8328464012593031
387.9960441519506	3.0	feedback	n/a	n/a	n/a	n/a	n/a	n/a	n/a
391.4959722841159	2.5	scene	reward	nonviolation	4	A	84	1	0.6199003378860652
393.9959722841159	3.0	feedback	n/a	n/a	n/a	n/a	n/a	n/a	n/a
397.4958916790784	2.5	scene	neutral	violation	4	A	3	1	0.8289910228922963
399.9958916790784	3.0	feedback	n/a	n/a	n/a	n/a	n/a	n/a	n/a
403.49580639228236	2.5	scene	reward	violation	4	A	39	1	0.5510769207030535
405.99580639228236	3.0	feedback	n/a	n/a	n/a	n/a	n/a	n/a	n/a
409.49572304589685	2.5	scene	neutral	nonviolation	4	A	58	1	0.9091604053974152
411.99572304589685	3.0	feedback	n/a	n/a	n/a	n/a	n/a	n/a	n/a
415.47896389290685	2.5	scene	reward	violation	4	A	10	1	0.6869169711135328
417.97896389290685	3.0	feedback	n/a	n/a	n/a	n/a	n/a	n/a	n/a
421.49556337995455	2.5	scene	neutral	nonviolation	4	A	52	1	0.7833227263763547
423.99556337995455	3.0	feedback	n/a	n/a	n/a	n/a	n/a	n/a	n/a
427.47881245519966	2.5	scene	reward	nonviolation	4	A	92	1	0.6960588307119906
429.97881245519966	3.0	feedback	n/a	n/a	n/a	n/a	n/a	n/a	n/a
433.4787330082617	2.5	scene	reward	nonviolation	4	A	61	1	0.6091530988924205
435.9787330082617	3.0	feedback	n/a	n/a	n/a	n/a	n/a	n/a	n/a
439.4786634151823	2.5	scene	neutral	nonviolation	4	A	85	1	0.5212237951345742
441.9786634151823	3.0	feedback	n/a	n/a	n/a	n/a	n/a	n/a	n/a
445.4785809731111	2.5	scene	neutral	nonviolation	4	A	87	1	0.6473015579394996
447.9785809731111	3.0	feedback	n/a	n/a	n/a	n/a	n/a	n/a	n/a
451.4785028221085	2.5	scene	neutral	nonviolation	4	A	75	1	0.6483879052102566
453.9785028221085	3.0	feedback	n/a	n/a	n/a	n/a	n/a	n/a	n/a
457.478433012031	2.5	scene	reward	violation	4	A	38	1	0.5934560312889516
459.978433012031	3.0	feedback	n/a	n/a	n/a	n/a	n/a	n/a	n/a
463.47833401802933	2.5	scene	reward	nonviolation	4	A	80	1	0.623570614028722
465.97833401802933	3.0	feedback	n/a	n/a	n/a	n/a	n/a	n/a	n/a
469.47826933301997	2.5	scene	reward	nonviolation	4	A	91	1	1.2266163369640708
471.97826933301997	3.0	feedback	n/a	n/a	n/a	n/a	n/a	n/a	n/a
475.4781863652169	2.5	scene	reward	violation	4	A	2	1	0.6997132669202983
477.9781863652169	3.0	feedback	n/a	n/a	n/a	n/a	n/a	n/a	n/a
481.4781059729866	2.5	scene	neutral	nonviolation	4	A	95	1	0.7117815730161965
483.9781059729866	3.0	feedback	n/a	n/a	n/a	n/a	n/a	n/a	n/a
487.47802585130563	2.5	scene	neutral	violation	4	A	45	1	0.8908667350187898
489.97802585130563	3.0	feedback	n/a	n/a	n/a	n/a	n/a	n/a	n/a
493.4779452951625	2.5	scene	neutral	violation	4	A	4	1	1.0368451811373234
495.9779452951625	3.0	feedback	n/a	n/a	n/a	n/a	n/a	n/a	n/a
499.47786821099004	2.5	scene	reward	violation	4	A	42	1	0.6420281189493835
501.97786821099004	3.0	feedback	n/a	n/a	n/a	n/a	n/a	n/a	n/a
505.4824776342138	2.5	scene	neutral	violation	4	A	40	1	0.5814273497089744
507.9824776342138	3.0	feedback	n/a	n/a	n/a	n/a	n/a	n/a	n/a
511.48200729023677	2.5	scene	reward	violation	4	A	11	1	0.8698891378007829
513.9820072902367	3.0	feedback	n/a	n/a	n/a	n/a	n/a	n/a	n/a
517.4776316042991	2.5	scene	reward	nonviolation	4	A	86	1	0.5582563946954906
519.9776316042991	3.0	feedback	n/a	n/a	n/a	n/a	n/a	n/a	n/a
523.482191727031	2.5	scene	neutral	violation	4	A	16	1	0.7347087292000651
525.982191727031	3.0	feedback	n/a	n/a	n/a	n/a	n/a	n/a	n/a
529.4775007762946	2.5	scene	reward	violation	4	A	19	1	0.6353894998319447
531.9775007762946	3.0	feedback	n/a	n/a	n/a	n/a	n/a	n/a	n/a
535.4773955442943	2.5	scene	neutral	nonviolation	4	A	51	1	0.6084890156053007
537.9773955442943	3.0	feedback	n/a	n/a	n/a	n/a	n/a	n/a	n/a
541.4810713930055	2.5	scene	neutral	violation	4	A	21	1	0.5978241353295743
543.9810713930055	3.0	feedback	n/a	n/a	n/a	n/a	n/a	n/a	n/a
547.4772351509891	2.5	scene	reward	violation	4	A	18	1	0.8716650479473174
549.9772351509891	3.0	feedback	n/a	n/a	n/a	n/a	n/a	n/a	n/a
553.4771477389148	2.5	scene	neutral	violation	4	A	41	1	0.6267368360422552
555.9771477389148	3.0	feedback	n/a	n/a	n/a	n/a	n/a	n/a	n/a
559.4799323882908	2.5	scene	reward	violation	4	A	28	1	0.5949892066419125
561.9799323882908	3.0	feedback	n/a	n/a	n/a	n/a	n/a	n/a	n/a
565.4769947300665	2.5	scene	reward	nonviolation	4	A	78	1	0.5389126762747765
567.9769947300665	3.0	feedback	n/a	n/a	n/a	n/a	n/a	n/a	n/a
571.4793510232121	2.5	scene	reward	violation	4	A	31	1	0.5725611727684736
573.9793510232121	3.0	feedback	n/a	n/a	n/a	n/a	n/a	n/a	n/a
577.4768289211206	2.5	scene	reward	nonviolation	4	A	69	1	0.5570762087590992
579.9768289211206	3.0	feedback	n/a	n/a	n/a	n/a	n/a	n/a	n/a
583.4785259081982	2.5	scene	neutral	nonviolation	4	A	93	1	0.4933799100108445
585.9785259081982	3.0	feedback	n/a	n/a	n/a	n/a	n/a	n/a	n/a
