onset	duration	trial_type	condition	repetition	pairmate	pairID	category	subcategory	response_accuracy	response_time
13.510411106999529	1	postlearning	nonviolation	7	B	88	scene	outdoor	1	0.6273893319994386
16.510380165000242	1	postlearning	nonviolation	7	B	72	scene	outdoor	1	0.5974003100018308
19.510339147000195	1	postlearning	nonviolation	7	B	83	scene	outdoor	1	0.6394551960001991
22.51030164700205	1	postlearning	nonviolation	7	B	76	scene	indoor	1	0.59349347099851
25.510262988002072	1	postlearning	nonviolation	7	B	56	scene	outdoor	1	0.6455396029996336
28.510216458998908	1	postlearning	nonviolation	7	B	59	scene	outdoor	1	0.6765835160003917
31.51017806700111	1	postlearning	violation	7	B	27	scene	outdoor	1	0.5946148429975437
34.51014782100174	1	postlearning	violation	7	B	33	scene	indoor	1	0.5826131789981446
37.510108278998814	1	postlearning	violation	7	B	24	scene	indoor	1	0.5726976760015532
40.510067000999705	1	postlearning	violation	7	B	34	scene	indoor	1	0.6807232480023231
43.51002123600121	1	postlearning	nonviolation	7	B	73	scene	outdoor	1	0.6247795429990219
46.50998197700029	1	postlearning	nonviolation	7	B	67	scene	outdoor	1	0.5478218419993937
49.509944028999605	1	postlearning	violation	7	B	37	scene	outdoor	1	0.8237881240020215
52.509912099001674	1	postlearning	nonviolation	7	B	60	scene	indoor	1	0.7328865819981729
55.509864875999476	1	postlearning	violation	7	B	22	scene	outdoor	1	0.5719339919996855
58.50983072500093	1	postlearning	nonviolation	7	B	87	scene	indoor	1	0.5809743479985627
61.50978694700098	1	postlearning	nonviolation	7	B	63	scene	indoor	1	0.6470117729986669
64.5097580670008	1	postlearning	nonviolation	7	B	92	scene	indoor	1	0.6760474849979801
67.50971621999997	1	postlearning	nonviolation	7	B	54	scene	indoor	1	0.6800833380002587
70.50967627700085	1	postlearning	nonviolation	7	B	77	scene	indoor	1	0.7401232720003463
73.50963953500104	1	postlearning	violation	7	B	46	scene	indoor	1	0.7601589219993912
76.50958735400127	1	postlearning	violation	7	B	9	scene	indoor	1	1.0802179769998477
79.50955089700074	1	postlearning	violation	7	B	17	scene	indoor	1	0.5752181069983635
82.50951603200156	1	postlearning	nonviolation	7	B	91	scene	outdoor	1	0.7512855679997301
85.50947181399897	1	postlearning	violation	7	B	36	scene	outdoor	1	0.5033355570012645
88.5094319710006	1	postlearning	violation	7	B	14	scene	indoor	1	0.6223790049989475
91.50939203099917	1	postlearning	nonviolation	7	B	84	scene	indoor	1	0.6874141230000532
94.50936377499966	1	postlearning	nonviolation	7	B	75	scene	outdoor	1	0.6394437240014668
97.50931969199884	1	postlearning	nonviolation	7	B	52	scene	indoor	1	0.6844818500030669
100.50927150600181	1	postlearning	nonviolation	7	B	61	scene	outdoor	1	0.7855380410001089
103.5092314149988	1	postlearning	violation	7	B	2	scene	outdoor	1	0.3985742930017295
106.50920086800032	1	postlearning	nonviolation	7	B	65	scene	indoor	1	0.6046024050010601
109.50915295099912	1	postlearning	violation	7	B	39	scene	outdoor	1	0.7496482470014598
112.50911475500106	1	postlearning	nonviolation	7	B	55	scene	outdoor	1	0.7236967729986645
115.50907321799968	1	postlearning	nonviolation	7	B	53	scene	outdoor	1	0.5687380019990087
118.50903259099869	1	postlearning	violation	7	B	12	scene	outdoor	1	0.6727711910025391
121.50900814700071	1	postlearning	violation	7	B	13	scene	outdoor	1	0.5687909080006648
124.50896297299913	1	postlearning	violation	7	B	31	scene	indoor	1	0.8178126180027903
127.5089160860007	1	postlearning	nonviolation	7	B	49	scene	indoor	1	0.6408895179993124
130.50889276499947	1	postlearning	violation	7	B	38	scene	indoor	1	0.749928170000203
133.50884100199983	1	postlearning	violation	7	B	48	scene	outdoor	1	0.5469678619992919
136.50880089099883	1	postlearning	nonviolation	7	B	58	scene	indoor	1	0.7640098730007594
139.50876502900064	1	postlearning	violation	7	B	5	scene	indoor	1	0.6260469730004843
142.50872376999902	1	postlearning	nonviolation	7	B	90	scene	outdoor	1	0.4940834200024256
145.5086857999995	1	postlearning	violation	7	B	30	scene	outdoor	1	0.5931247980006447
148.50864378700138	1	postlearning	nonviolation	7	B	69	scene	indoor	1	0.532170380000025
151.50858920999963	1	postlearning	nonviolation	7	B	57	scene	outdoor	1	0.6592257090014755
154.50855462600157	1	postlearning	nonviolation	7	B	96	scene	indoor	1	0.5632627759987372
157.50851368800068	1	postlearning	violation	7	B	41	scene	outdoor	1	0.6062989950005431
160.50848554999902	1	postlearning	nonviolation	7	B	78	scene	outdoor	1	0.6462627860018983
163.50847581000195	1	postlearning	nonviolation	7	B	82	scene	indoor	1	0.6063378660001035
166.5083992430009	1	postlearning	nonviolation	7	B	95	scene	indoor	1	0.7024111989994708
169.50835973100035	1	postlearning	nonviolation	7	B	68	scene	outdoor	1	0.5484521920006955
172.49164123700032	1	postlearning	nonviolation	7	B	85	scene	outdoor	1	0.8121775010004058
175.49159925899949	1	postlearning	nonviolation	7	B	50	scene	outdoor	1	0.7342127750016516
178.5082349510012	1	postlearning	nonviolation	7	B	74	scene	outdoor	1	0.6785820879995299
181.49151641700158	1	postlearning	violation	7	B	26	scene	indoor	1	0.69432407199929
184.50815352100108	1	postlearning	violation	7	B	10	scene	outdoor	1	0.6585848079994321
187.50811410000097	1	postlearning	violation	7	B	15	scene	indoor	1	0.6287115839986654
190.50807317200088	1	postlearning	violation	7	B	42	scene	outdoor	1	0.6866906129980634
193.4913656030003	1	postlearning	nonviolation	7	B	93	scene	outdoor	1	0.7204519879996951
196.49132192600155	1	postlearning	violation	7	B	8	scene	outdoor	1	0.5284906429988041
199.4912802660001	1	postlearning	violation	7	B	21	scene	outdoor	1	0.5775361310006701
202.49124155400204	1	postlearning	nonviolation	7	B	89	scene	indoor	1	0.7405832559998089
205.49120178700105	1	postlearning	violation	7	B	19	scene	outdoor	1	0.5256234480002604
208.49118597200143	1	postlearning	violation	7	B	35	scene	outdoor	1	0.5266295820001687
211.49112530899947	1	postlearning	violation	7	B	43	scene	outdoor	0	0.7466913050011499
214.49107912900215	1	postlearning	violation	7	B	4	scene	outdoor	1	0.981738985999982
217.491041674999	1	postlearning	nonviolation	7	B	71	scene	indoor	1	0.5917738950010971
220.491004890002	1	postlearning	violation	7	B	3	scene	outdoor	1	0.5078157889984141
223.49095924799985	1	postlearning	violation	7	B	6	scene	indoor	1	0.8168577360011113
226.49092459600067	1	postlearning	violation	7	B	25	scene	outdoor	1	0.6108961559984891
229.49087609400158	1	postlearning	violation	7	B	7	scene	indoor	1	0.5489513849970535
232.49085943699902	1	postlearning	violation	7	B	16	scene	indoor	1	0.7289601900010894
235.49080354400206	1	postlearning	violation	7	B	47	scene	indoor	1	0.6770236569973349
238.49078269399982	1	postlearning	violation	7	B	23	scene	indoor	1	0.7240383489988744
241.49072479100138	1	postlearning	nonviolation	7	B	51	scene	indoor	1	0.7240932589993463
244.49067321700204	1	postlearning	violation	7	B	40	scene	indoor	1	0.6971521209998173
247.49065074499958	1	postlearning	violation	7	B	32	scene	outdoor	1	0.9241760969998722
250.49060063700017	1	postlearning	violation	7	B	45	scene	indoor	1	0.7001350440004899
253.49056641900097	1	postlearning	violation	7	B	11	scene	outdoor	1	0.5402550859980693
256.49051744100143	1	postlearning	nonviolation	7	B	80	scene	indoor	1	0.7993059529981109
259.4904968640003	1	postlearning	violation	7	B	18	scene	outdoor	1	0.6363283200007572
262.4904355229992	1	postlearning	violation	7	B	44	scene	indoor	1	0.6573866110011295
265.4904091140015	1	postlearning	nonviolation	7	B	70	scene	outdoor	1	0.5334166579996236
268.490360759999	1	postlearning	nonviolation	7	B	81	scene	outdoor	0	0.7874644210023689
271.49032314800206	1	postlearning	nonviolation	7	B	86	scene	indoor	1	0.6395047109981533
274.49029187199994	1	postlearning	nonviolation	7	B	79	scene	indoor	1	0.8515348620021541
277.4902556759989	1	postlearning	violation	7	B	1	scene	indoor	0	0.8755743040019297
280.49019965000116	1	postlearning	nonviolation	7	B	94	scene	outdoor	1	0.8896323759981897
283.4901587329987	1	postlearning	nonviolation	7	B	66	scene	indoor	1	0.6886705020006048
286.4901295589989	1	postlearning	violation	7	B	20	scene	indoor	1	0.5727004620021034
289.4900784460005	1	postlearning	violation	7	B	29	scene	indoor	1	0.7417486509984883
292.49003491899936	1	postlearning	violation	7	B	28	scene	indoor	1	0.6297930260006979
295.48999814200215	1	postlearning	nonviolation	7	B	62	scene	outdoor	1	0.4428327139976318
298.4899703699994	1	postlearning	nonviolation	7	B	64	scene	indoor	1	0.6388618199998746
