onset	duration	trial_type	reward_condition	condition	repetition	pairmate	pairID	response_accuracy	response_time
13.514192975999322	2.5	scene	reward	violation	3	A	6	1	0.6126394080056343
16.014192975999322	3.0	feedback	n/a	n/a	n/a	n/a	n/a	n/a	n/a
19.514114461984718	2.5	scene	neutral	violation	3	A	17	1	0.5127251660160255
22.01411446198472	3.0	feedback	n/a	n/a	n/a	n/a	n/a	n/a	n/a
25.514043114992088	2.5	scene	neutral	violation	3	A	36	1	0.5697957320080604
28.014043114992088	3.0	feedback	n/a	n/a	n/a	n/a	n/a	n/a	n/a
31.513956634997157	2.5	scene	neutral	nonviolation	3	A	49	1	1.0218866179930046
34.01395663499716	3.0	feedback	n/a	n/a	n/a	n/a	n/a	n/a	n/a
37.51388523899368	2.5	scene	reward	violation	3	A	12	1	0.6609527929977048
40.01388523899368	3.0	feedback	n/a	n/a	n/a	n/a	n/a	n/a	n/a
43.51379955900484	2.5	scene	reward	violation	3	A	48	1	0.536037485988345
46.01379955900484	3.0	feedback	n/a	n/a	n/a	n/a	n/a	n/a	n/a
49.513719534996206	2.5	scene	reward	violation	3	A	21	1	0.5831191249890253
52.013719534996206	3.0	feedback	n/a	n/a	n/a	n/a	n/a	n/a	n/a
55.513650924986	2.5	scene	reward	nonviolation	3	A	70	1	0.5061833340150771
58.013650924986	3.0	feedback	n/a	n/a	n/a	n/a	n/a	n/a	n/a
61.51356022799154	2.5	scene	neutral	nonviolation	3	A	82	1	0.7432785409910139
64.01356022799155	3.0	feedback	n/a	n/a	n/a	n/a	n/a	n/a	n/a
67.51348050500383	2.5	scene	reward	nonviolation	3	A	88	1	0.5563646119844634
70.01348050500383	3.0	feedback	n/a	n/a	n/a	n/a	n/a	n/a	n/a
73.51340643400907	2.5	scene	neutral	nonviolation	3	A	79	1	0.6094351409992669
76.01340643400907	3.0	feedback	n/a	n/a	n/a	n/a	n/a	n/a	n/a
79.51332071601064	2.5	scene	reward	violation	3	A	1	1	0.5925219380005728
82.01332071601064	3.0	feedback	n/a	n/a	n/a	n/a	n/a	n/a	n/a
85.51324031400145	2.5	scene	reward	nonviolation	3	A	76	1	1.1556040279974695
88.01324031400145	3.0	feedback	n/a	n/a	n/a	n/a	n/a	n/a	n/a
91.51316023798428	2.5	scene	reward	violation	3	A	11	1	0.9946877040201798
94.01316023798428	3.0	feedback	n/a	n/a	n/a	n/a	n/a	n/a	n/a
97.51308808999602	2.5	scene	reward	violation	3	A	28	1	0.6047851130133495
100.01308808999602	3.0	feedback	n/a	n/a	n/a	n/a	n/a	n/a	n/a
103.49633600999368	2.5	scene	reward	nonviolation	3	A	85	1	0.6495118669990916
105.99633600999368	3.0	feedback	n/a	n/a	n/a	n/a	n/a	n/a	n/a
109.51292686499072	2.5	scene	neutral	violation	3	A	35	1	0.7679266420018394
112.01292686499072	3.0	feedback	n/a	n/a	n/a	n/a	n/a	n/a	n/a
115.49617789400507	2.5	scene	neutral	nonviolation	3	A	93	1	1.0316750319907442
117.99617789400507	3.0	feedback	n/a	n/a	n/a	n/a	n/a	n/a	n/a
121.49609619198601	2.5	scene	reward	violation	3	A	26	1	0.8707569570105989
123.99609619198601	3.0	feedback	n/a	n/a	n/a	n/a	n/a	n/a	n/a
127.49601737599005	2.5	scene	reward	nonviolation	3	A	92	1	0.7298328610195313
129.99601737599005	3.0	feedback	n/a	n/a	n/a	n/a	n/a	n/a	n/a
133.49593729298795	2.5	scene	neutral	violation	3	A	13	1	1.3708398320013655
135.99593729298795	3.0	feedback	n/a	n/a	n/a	n/a	n/a	n/a	n/a
139.4958559939987	2.5	scene	neutral	nonviolation	3	A	96	1	0.6820005459885579
141.99585599399867	3.0	feedback	n/a	n/a	n/a	n/a	n/a	n/a	n/a
145.49577514300472	2.5	scene	neutral	violation	3	A	8	1	0.5600778179941699
147.99577514300472	3.0	feedback	n/a	n/a	n/a	n/a	n/a	n/a	n/a
151.49569693399823	2.5	scene	reward	nonviolation	3	A	65	1	0.5781540739990305
153.99569693399823	3.0	feedback	n/a	n/a	n/a	n/a	n/a	n/a	n/a
157.4956170509977	2.5	scene	neutral	nonviolation	3	A	62	1	0.6022448999865446
159.9956170509977	3.0	feedback	n/a	n/a	n/a	n/a	n/a	n/a	n/a
163.49553629299044	2.5	scene	neutral	nonviolation	3	A	69	1	0.6853153140109498
165.99553629299044	3.0	feedback	n/a	n/a	n/a	n/a	n/a	n/a	n/a
169.49545961100375	2.5	scene	neutral	violation	3	A	3	0	0.8044101969862822
171.99545961100375	3.0	feedback	n/a	n/a	n/a	n/a	n/a	n/a	n/a
175.49537678499473	2.5	scene	reward	violation	3	A	38	1	0.6334864319942426
177.99537678499473	3.0	feedback	n/a	n/a	n/a	n/a	n/a	n/a	n/a
181.49975835898655	2.5	scene	reward	nonviolation	3	A	52	1	0.5370826260186732
183.99975835898655	3.0	feedback	n/a	n/a	n/a	n/a	n/a	n/a	n/a
187.49521606200142	2.5	scene	neutral	nonviolation	3	A	55	1	0.7676462130038999
189.99521606200142	3.0	feedback	n/a	n/a	n/a	n/a	n/a	n/a	n/a
193.49977503600533	2.5	scene	neutral	violation	3	A	27	1	0.9900864899973384
195.99977503600533	3.0	feedback	n/a	n/a	n/a	n/a	n/a	n/a	n/a
199.49858658399899	2.5	scene	reward	nonviolation	3	A	74	1	0.7082698520098347
201.99858658399899	3.0	feedback	n/a	n/a	n/a	n/a	n/a	n/a	n/a
205.4981663530052	2.5	scene	neutral	violation	3	A	15	1	0.6096975329855923
207.9981663530052	3.0	feedback	n/a	n/a	n/a	n/a	n/a	n/a	n/a
211.49871454999084	2.5	scene	neutral	violation	3	A	20	1	0.5691494740021881
213.99871454999084	3.0	feedback	n/a	n/a	n/a	n/a	n/a	n/a	n/a
217.4982446770009	2.5	scene	neutral	violation	3	A	29	1	0.5536194159940351
219.9982446770009	3.0	feedback	n/a	n/a	n/a	n/a	n/a	n/a	n/a
223.49905316499644	2.5	scene	neutral	violation	3	A	45	1	1.0668240759987384
225.99905316499644	3.0	feedback	n/a	n/a	n/a	n/a	n/a	n/a	n/a
229.4986389990081	2.5	scene	neutral	nonviolation	3	A	72	0	1.041237255994929
231.9986389990081	3.0	feedback	n/a	n/a	n/a	n/a	n/a	n/a	n/a
235.4971552229836	2.5	scene	reward	violation	3	A	42	1	0.7107103590096813
237.9971552229836	3.0	feedback	n/a	n/a	n/a	n/a	n/a	n/a	n/a
241.49767680399242	2.5	scene	neutral	violation	3	A	47	1	1.0241929609910585
243.99767680399242	3.0	feedback	n/a	n/a	n/a	n/a	n/a	n/a	n/a
247.4974828859849	2.5	scene	reward	nonviolation	3	A	64	1	0.6443831970100291
249.9974828859849	3.0	feedback	n/a	n/a	n/a	n/a	n/a	n/a	n/a
253.4972193260037	2.5	scene	neutral	nonviolation	3	A	77	1	0.6186582600057591
255.9972193260037	3.0	feedback	n/a	n/a	n/a	n/a	n/a	n/a	n/a
259.49624556998606	2.5	scene	reward	violation	3	A	22	1	0.6336194710165728
261.99624556998606	3.0	feedback	n/a	n/a	n/a	n/a	n/a	n/a	n/a
265.49653376999777	2.5	scene	reward	violation	3	A	34	1	0.9443366549967322
267.99653376999777	3.0	feedback	n/a	n/a	n/a	n/a	n/a	n/a	n/a
271.4962738220056	2.5	scene	reward	nonviolation	3	A	58	1	0.9215971649973652
273.9962738220056	3.0	feedback	n/a	n/a	n/a	n/a	n/a	n/a	n/a
277.49580410899944	2.5	scene	neutral	nonviolation	3	A	87	1	0.7389873299980536
279.99580410899944	3.0	feedback	n/a	n/a	n/a	n/a	n/a	n/a	n/a
283.49560591799667	2.5	scene	neutral	nonviolation	3	A	57	1	0.6592657789879013
285.99560591799667	3.0	feedback	n/a	n/a	n/a	n/a	n/a	n/a	n/a
289.49512022998533	2.5	scene	reward	nonviolation	3	A	53	1	0.7207548290025443
291.99512022998533	3.0	feedback	n/a	n/a	n/a	n/a	n/a	n/a	n/a
295.4946368479868	2.5	scene	reward	nonviolation	3	A	91	1	0.676239799009636
297.9946368479868	3.0	feedback	n/a	n/a	n/a	n/a	n/a	n/a	n/a
301.4941426769947	2.5	scene	neutral	nonviolation	4	A	82	1	0.6917301809880883
303.9941426769947	3.0	feedback	n/a	n/a	n/a	n/a	n/a	n/a	n/a
307.49467201699736	2.5	scene	reward	nonviolation	4	A	88	1	0.5602020240039565
309.99467201699736	3.0	feedback	n/a	n/a	n/a	n/a	n/a	n/a	n/a
313.4935389460006	2.5	scene	neutral	nonviolation	4	A	96	1	0.6543400989903603
315.9935389460006	3.0	feedback	n/a	n/a	n/a	n/a	n/a	n/a	n/a
319.4934556639928	2.5	scene	neutral	violation	4	A	13	1	0.9794257970061152
321.9934556639928	3.0	feedback	n/a	n/a	n/a	n/a	n/a	n/a	n/a
325.49373042798834	2.5	scene	neutral	violation	4	A	45	1	0.7501544610131532
327.99373042798834	3.0	feedback	n/a	n/a	n/a	n/a	n/a	n/a	n/a
331.4932895870006	2.5	scene	reward	nonviolation	4	A	76	1	0.7345734289847314
333.9932895870006	3.0	feedback	n/a	n/a	n/a	n/a	n/a	n/a	n/a
337.4932139450102	2.5	scene	reward	nonviolation	4	A	58	1	0.667662476975238
339.9932139450102	3.0	feedback	n/a	n/a	n/a	n/a	n/a	n/a	n/a
343.4931396209868	2.5	scene	reward	nonviolation	4	A	52	1	0.6167626050009858
345.99313962098677	3.0	feedback	n/a	n/a	n/a	n/a	n/a	n/a	n/a
349.49305123899836	2.5	scene	neutral	violation	4	A	36	1	0.7688309809891507
351.99305123899836	3.0	feedback	n/a	n/a	n/a	n/a	n/a	n/a	n/a
355.49297185198515	2.5	scene	reward	nonviolation	4	A	85	1	0.6039082900097128
357.99297185198515	3.0	feedback	n/a	n/a	n/a	n/a	n/a	n/a	n/a
361.49289682798553	2.5	scene	reward	violation	4	A	34	1	0.6779858970257919
363.99289682798553	3.0	feedback	n/a	n/a	n/a	n/a	n/a	n/a	n/a
367.4928198249836	2.5	scene	neutral	violation	4	A	17	1	0.5770637500099838
369.9928198249836	3.0	feedback	n/a	n/a	n/a	n/a	n/a	n/a	n/a
373.4927362499875	2.5	scene	reward	violation	4	A	22	1	0.5811429220193531
375.9927362499875	3.0	feedback	n/a	n/a	n/a	n/a	n/a	n/a	n/a
379.49265008600196	2.5	scene	reward	nonviolation	4	A	91	1	0.5642301210027654
381.99265008600196	3.0	feedback	n/a	n/a	n/a	n/a	n/a	n/a	n/a
385.49257554198266	2.5	scene	neutral	nonviolation	4	A	93	1	0.9003123820002656
387.99257554198266	3.0	feedback	n/a	n/a	n/a	n/a	n/a	n/a	n/a
391.4924917859898	2.5	scene	reward	violation	4	A	42	1	0.7203955640143249
393.9924917859898	3.0	feedback	n/a	n/a	n/a	n/a	n/a	n/a	n/a
397.4924114070018	2.5	scene	neutral	violation	4	A	8	1	0.5204795669997111
399.9924114070018	3.0	feedback	n/a	n/a	n/a	n/a	n/a	n/a	n/a
403.4923290000006	2.5	scene	reward	nonviolation	4	A	64	1	0.6255569040076807
405.9923290000006	3.0	feedback	n/a	n/a	n/a	n/a	n/a	n/a	n/a
409.4922561100102	2.5	scene	neutral	nonviolation	4	A	72	1	0.6506330699776299
411.9922561100102	3.0	feedback	n/a	n/a	n/a	n/a	n/a	n/a	n/a
415.4921756130061	2.5	scene	reward	nonviolation	4	A	92	1	0.6027165319828782
417.9921756130061	3.0	feedback	n/a	n/a	n/a	n/a	n/a	n/a	n/a
421.4920880630089	2.5	scene	neutral	nonviolation	4	A	69	1	0.5498053009796422
423.9920880630089	3.0	feedback	n/a	n/a	n/a	n/a	n/a	n/a	n/a
427.492009359994	2.5	scene	neutral	violation	4	A	15	1	0.5368790579959749
429.992009359994	3.0	feedback	n/a	n/a	n/a	n/a	n/a	n/a	n/a
433.49193467499566	2.5	scene	reward	violation	4	A	26	1	0.641954363003606
435.99193467499566	3.0	feedback	n/a	n/a	n/a	n/a	n/a	n/a	n/a
439.4918491030112	2.5	scene	neutral	nonviolation	4	A	79	1	0.5749703259789385
441.9918491030112	3.0	feedback	n/a	n/a	n/a	n/a	n/a	n/a	n/a
445.4917676759942	2.5	scene	neutral	nonviolation	4	A	62	1	0.5561225019919219
447.9917676759942	3.0	feedback	n/a	n/a	n/a	n/a	n/a	n/a	n/a
451.4916879459925	2.5	scene	neutral	violation	4	A	47	1	0.8542096960009076
453.9916879459925	3.0	feedback	n/a	n/a	n/a	n/a	n/a	n/a	n/a
457.4916164639872	2.5	scene	neutral	violation	4	A	3	1	0.578300905006472
459.9916164639872	3.0	feedback	n/a	n/a	n/a	n/a	n/a	n/a	n/a
463.4915272250073	2.5	scene	neutral	violation	4	A	27	1	0.8883645059831906
465.9915272250073	3.0	feedback	n/a	n/a	n/a	n/a	n/a	n/a	n/a
469.49144599598367	2.5	scene	reward	violation	4	A	12	1	0.8184465230151545
471.99144599598367	3.0	feedback	n/a	n/a	n/a	n/a	n/a	n/a	n/a
475.4913627369969	2.5	scene	reward	violation	4	A	1	1	0.5625580410123803
477.9913627369969	3.0	feedback	n/a	n/a	n/a	n/a	n/a	n/a	n/a
481.49128704200854	2.5	scene	reward	violation	4	A	38	1	0.5936113949865103
483.99128704200854	3.0	feedback	n/a	n/a	n/a	n/a	n/a	n/a	n/a
487.49121283998835	2.5	scene	reward	violation	4	A	28	1	0.7706834860146046
489.99121283998835	3.0	feedback	n/a	n/a	n/a	n/a	n/a	n/a	n/a
493.4911257420026	2.5	scene	neutral	violation	4	A	20	1	0.610772341984557
495.9911257420026	3.0	feedback	n/a	n/a	n/a	n/a	n/a	n/a	n/a
499.4910446330032	2.5	scene	reward	nonviolation	4	A	70	1	0.5568581929837819
501.9910446330032	3.0	feedback	n/a	n/a	n/a	n/a	n/a	n/a	n/a
505.49096875000396	2.5	scene	reward	violation	4	A	21	1	0.6019306670059449
507.99096875000396	3.0	feedback	n/a	n/a	n/a	n/a	n/a	n/a	n/a
511.49088167899765	2.5	scene	neutral	violation	4	A	29	1	0.5279383099987172
513.9908816789975	3.0	feedback	n/a	n/a	n/a	n/a	n/a	n/a	n/a
517.4908078059962	2.5	scene	reward	violation	4	A	11	1	1.4120989959919823
519.9908078059962	3.0	feedback	n/a	n/a	n/a	n/a	n/a	n/a	n/a
523.4907258150051	2.5	scene	reward	nonviolation	4	A	53	1	1.1971759609878063
525.9907258150051	3.0	feedback	n/a	n/a	n/a	n/a	n/a	n/a	n/a
529.490643164987	2.5	scene	neutral	violation	4	A	35	1	0.5552589599974453
531.990643164987	3.0	feedback	n/a	n/a	n/a	n/a	n/a	n/a	n/a
535.4905660290096	2.5	scene	neutral	nonviolation	4	A	87	1	0.7513367889914662
537.9905660290096	3.0	feedback	n/a	n/a	n/a	n/a	n/a	n/a	n/a
541.4904827369901	2.5	scene	reward	violation	4	A	48	1	0.5834327409975231
543.9904827369901	3.0	feedback	n/a	n/a	n/a	n/a	n/a	n/a	n/a
547.4737331229844	2.5	scene	neutral	nonviolation	4	A	77	1	0.6851729480258655
549.9737331229844	3.0	feedback	n/a	n/a	n/a	n/a	n/a	n/a	n/a
553.4736529290094	2.5	scene	reward	nonviolation	4	A	74	1	0.6012549699808005
555.9736529290094	3.0	feedback	n/a	n/a	n/a	n/a	n/a	n/a	n/a
559.4735723960039	2.5	scene	neutral	nonviolation	4	A	55	1	0.7113366329867858
561.9735723960039	3.0	feedback	n/a	n/a	n/a	n/a	n/a	n/a	n/a
565.4734941349889	2.5	scene	neutral	nonviolation	4	A	49	1	1.0724171720212323
567.9734941349889	3.0	feedback	n/a	n/a	n/a	n/a	n/a	n/a	n/a
571.473411029001	2.5	scene	reward	violation	4	A	6	1	0.5474976009863894
573.973411029001	3.0	feedback	n/a	n/a	n/a	n/a	n/a	n/a	n/a
577.4733290709846	2.5	scene	reward	nonviolation	4	A	65	1	0.5725779320055153
579.9733290709846	3.0	feedback	n/a	n/a	n/a	n/a	n/a	n/a	n/a
583.4732472230097	2.5	scene	neutral	nonviolation	4	A	57	1	0.5606601959734689
585.9732472230097	3.0	feedback	n/a	n/a	n/a	n/a	n/a	n/a	n/a
