onset	duration	trial_type	condition	response_accuracy	response_time
13.51342422599555	2.5	B	violation	0	1.4775770630221814
16.51338348601712	2.5	A	nonviolation	1	0.832615231978707
19.513347040017837	2.5	A	violation	1	0.5816441969946027
22.51331114699133	2.5	B	violation	0	1.3536832610261629
25.513259838015074	2.5	B	violation	1	1.2477407869882882
28.513230417011076	2.5	A	nonviolation	1	0.8637679319945164
31.51318676699884	2.5	A	violation	1	0.9388138890208212
34.51314678401104	2.5	B	nonviolation	1	1.0338491050060838
37.513100761018	2.5	B	nonviolation	1	1.1668938919901848
40.51306615199428	2.5	A	violation	1	0.5419316030165646
43.513020081009024	2.5	A	nonviolation	1	0.7349011490005068
46.51298574201064	2.5	B	violation	0	0.6990127860044595
49.51295019299141	2.5	A	violation	1	0.6830458620097488
52.51290098499158	2.5	A	nonviolation	1	0.8160172460193279
55.51287055300782	2.5	A	violation	1	0.5481262899993453
58.51281934499275	2.5	B	violation	1	0.7251813810144085
61.51278966700193	2.5	B	nonviolation	1	0.8912107989890501
64.5127400830097	2.5	B	violation	0	0.986259680998046
67.51270783500513	2.5	A	violation	1	0.7162944219890051
70.5126688790042	2.5	A	violation	1	0.8233328369969968
73.51262354801294	2.5	B	nonviolation	0	0.8443772039900068
76.51258175101249	2.5	A	nonviolation	1	0.616419412981486
79.51254428600079	2.5	A	violation	1	0.671385116991587
82.51250712800537	2.5	B	violation	1	0.7204959189984947
85.51246628601803	2.5	B	violation	1	0.7344634409819264
88.51241390701034	2.5	A	nonviolation	1	0.6435923780081794
91.51237391101313	2.5	A	violation	1	0.9466329679999036
94.51233371999115	2.5	A	nonviolation	1	0.6586755570024252
97.51229547400726	2.5	B	nonviolation	0	0.946712106000632
100.51226468701498	2.5	B	violation	0	1.1197425729769748
103.5122123809997	2.5	A	nonviolation	1	0.9718165069934912
106.5121719689923	2.5	B	violation	0	1.0968336980149616
109.5121300489991	2.5	B	nonviolation	1	1.3328806550125591
112.51210111100228	2.5	B	nonviolation	1	0.6569037360022776
115.5120549630083	2.5	A	nonviolation	1	0.6129545209987555
118.49534053899694	2.5	B	nonviolation	1	0.7686726580141112
121.4953007720178	2.5	A	violation	1	0.7647076479915995
124.49525867099872	2.5	A	violation	1	0.6167472389934119
127.49521947099129	2.5	B	nonviolation	0	1.0347092560259623
130.51185615899158	2.5	B	violation	0	0.8961640850175172
133.49513942899648	2.5	B	nonviolation	1	0.6048733710194938
136.49509445900912	2.5	A	nonviolation	1	0.8979178839945234
139.4950520679995	2.5	B	violation	0	1.19196248499793
142.49501290399348	2.5	A	nonviolation	0	0.6209987240144983
145.49497053801315	2.5	B	nonviolation	1	0.9110404189850668
148.49493886300482	2.5	A	violation	1	0.6150686659966595
151.4948872810055	2.5	A	nonviolation	1	0.6941208500065841
154.4948467719951	2.5	B	nonviolation	0	0.7330873920000158
157.49481069901958	2.5	A	nonviolation	1	0.5192044389841612
160.4947687590029	2.5	B	violation	0	0.5662466590001713
163.4947266660165	2.5	B	violation	1	0.6762898369925097
166.49468444200463	2.5	A	nonviolation	1	0.6223303840088192
169.4946426700044	2.5	B	nonviolation	0	1.1393767849949654
172.49460114000252	2.5	B	nonviolation	0	0.6304109129996505
175.49457138800065	2.5	A	violation	1	0.5454469300166238
178.49452937301245	2.5	A	violation	1	0.6914888210012577
181.4944990740041	2.5	A	nonviolation	1	0.7005061620147899
184.49443903099743	2.5	A	nonviolation	1	0.6995754610106815
187.4944003339915	2.5	A	nonviolation	1	0.4896173990273383
190.49436490199884	2.5	A	nonviolation	1	0.5516513879992999
193.49432214701665	2.5	B	nonviolation	0	0.7926960769982543
196.49427516199646	2.5	A	violation	1	0.6387399390223436
199.49423370001026	2.5	B	violation	0	1.0017904010019263
202.494193718012	2.5	A	nonviolation	1	0.7818265990063082
205.4941699950141	2.5	B	violation	0	0.8628517389879562
208.49411232801504	2.5	A	nonviolation	1	1.0999080119945577
211.49407007201808	2.5	A	violation	1	0.549869039998157
214.49404509700253	2.5	B	violation	0	0.8559790439903736
217.49405732200833	2.5	B	violation	0	0.8959654739883263
220.4939625239931	2.5	B	nonviolation	1	0.6980566940037534
223.49390825300358	2.5	A	nonviolation	1	0.7141194750147406
226.49386311499984	2.5	B	nonviolation	1	0.6511576950142626
229.49388906901004	2.5	B	nonviolation	0	0.8851381439890247
232.4937847180117	2.5	A	violation	1	0.781240637996234
235.49374740201165	2.5	B	nonviolation	1	0.7431934299820568
238.49371631399845	2.5	B	nonviolation	1	0.7093035959987901
241.49367381501358	2.5	A	violation	1	0.7313213390007149
244.49362295199532	2.5	B	violation	0	0.9714025550056248
247.49358061599202	2.5	B	violation	0	0.9244520790234674
250.49353122201862	2.5	A	violation	1	0.8414952379825991
253.49349532401538	2.5	B	nonviolation	0	0.9775241820025258
256.4934642080043	2.5	A	violation	1	0.6565613739949185
259.4934105660068	2.5	B	nonviolation	0	1.1556200349878054
262.49337688900414	2.5	B	nonviolation	0	0.9016573939879889
265.49333229701733	2.5	A	violation	1	0.6556981169851497
268.4932887149916	2.5	B	nonviolation	0	1.120741878025001
271.4932659000042	2.5	A	violation	1	1.1357620450144168
274.4932056890102	2.5	B	violation	1	0.7528239669918548
277.4931687590142	2.5	B	violation	0	0.8388626090018079
280.4931227490015	2.5	A	violation	1	0.7129092480172403
283.4930878060113	2.5	B	violation	1	1.06993828798295
286.49304538199794	2.5	A	nonviolation	1	0.7159868740127422
289.49299766201875	2.5	A	nonviolation	1	0.6610319059982429
292.4929682530056	2.5	A	nonviolation	1	0.7140638830023818
295.4929173609998	2.5	B	violation	0	0.7631113130191807
298.492887016997	2.5	A	violation	1	0.8901478509942535
301.49283946800284	2.5	B	violation	1	0.6281956800085027
304.49280062000616	2.5	B	violation	0	0.8602328799897805
307.49275227601174	2.5	B	violation	1	0.675282972981222
310.4927144559915	2.5	A	violation	1	0.9843146500061266
313.4926667260006	2.5	A	violation	1	0.8263681870012078
316.4926306130073	2.5	B	nonviolation	1	0.8224084780085832
319.49258410101174	2.5	B	nonviolation	1	0.7453697699820623
322.4925451110176	2.5	A	violation	1	0.7924854289740324
325.49250455701264	2.5	A	nonviolation	0	0.8295282959879842
328.4924605709966	2.5	A	violation	1	0.7935775929945521
331.49243127301446	2.5	B	violation	0	0.7216031429998111
334.49238391401013	2.5	B	nonviolation	0	0.6586501179845072
337.4923378280073	2.5	A	nonviolation	1	0.5676976440008729
340.49230139201967	2.5	B	nonviolation	0	0.8716675839968957
343.4922518050007	2.5	B	nonviolation	0	0.6947833129961509
346.4922144580051	2.5	A	violation	1	1.236827140004607
349.49217122700065	2.5	B	nonviolation	1	0.6598675690183882
352.49214299599413	2.5	B	violation	1	0.8218941890227143
355.4920971810061	2.5	B	violation	0	0.7169400969869457
358.4920523820038	2.5	A	nonviolation	1	0.5539879360003397
361.49202101299306	2.5	B	nonviolation	1	1.0680223730159923
364.4919805510144	2.5	B	nonviolation	0	0.8630619279865641
367.4919463249971	2.5	A	nonviolation	1	0.5740965410077479
370.49188444699394	2.5	B	nonviolation	0	1.1071591540239751
373.4918457900057	2.5	A	nonviolation	1	0.8462021170125809
376.4918034720176	2.5	A	nonviolation	1	0.7442933559941594
379.49176348600304	2.5	A	violation	1	0.8972763860074338
382.49171841601486	2.5	A	nonviolation	1	0.7172417499823496
385.4916793270095	2.5	A	nonviolation	1	0.6013589619833511
388.4916300759942	2.5	A	nonviolation	1	0.5784085650229827
391.49160196300363	2.5	B	nonviolation	0	0.98044061800465
394.4915544970136	2.5	B	violation	0	1.0434892569901422
397.4915098519996	2.5	B	nonviolation	0	1.280535717000021
400.49147108700714	2.5	A	violation	1	0.7495729399961419
403.4914247780107	2.5	A	violation	1	0.7016225940024015
406.491384457011	2.5	A	violation	1	0.9526631000044291
409.4913495969959	2.5	A	violation	1	0.6196980180102399
412.49130791501375	2.5	A	nonviolation	0	0.5447357619996183
415.49125981199904	2.5	B	violation	1	0.6457915749924723
418.4912279320124	2.5	B	violation	0	0.7108133730071131
421.4911795500084	2.5	A	violation	1	0.6277827289886773
424.4911476850102	2.5	B	nonviolation	1	1.0788973009912295
427.491096156009	2.5	A	nonviolation	1	0.9179527660016902
430.4910561229917	2.5	B	violation	1	0.8759941950265784
433.49101626299665	2.5	B	violation	1	0.5920298240089323
436.49097245500883	2.5	B	violation	1	0.8950774199911393
439.4909370710084	2.5	A	violation	1	1.0721209420007654
442.4908875919937	2.5	A	nonviolation	1	0.6851599000219721
445.49084733900963	2.5	A	violation	1	0.8312051279935986
448.4908065210038	2.5	A	nonviolation	1	0.5722102280124091
451.4907671220135	2.5	A	violation	1	0.5962864180037286
454.49072892899864	2.5	B	violation	0	0.953353499993682
457.4906869440165	2.5	A	violation	1	0.7803717069909908
460.49063916399615	2.5	A	nonviolation	1	0.5514083430171013
463.4906038170157	2.5	A	nonviolation	1	0.8354481379792559
466.4905565590016	2.5	B	nonviolation	0	0.9464929490059149
469.4905129020044	2.5	A	nonviolation	1	0.6295380330120679
472.4904789490101	2.5	A	violation	1	0.7975793929945212
475.4904330490099	2.5	B	violation	1	0.7636244049936067
478.490396904992	2.5	B	nonviolation	1	0.7106552220066078
481.4903505670082	2.5	B	violation	1	0.589703586010728
484.490303108003	2.5	A	violation	1	0.6327551690046676
487.4902614250023	2.5	B	violation	0	0.6617945570033044
490.4902312140039	2.5	A	violation	1	0.6268268759886269
493.49018276800047	2.5	B	nonviolation	0	1.07287488100701
496.4901370459993	2.5	B	nonviolation	1	0.6969163720204959
499.49010733599437	2.5	A	violation	1	0.7629472610133234
502.49005933300936	2.5	A	nonviolation	1	0.7690075130085461
505.4900154329953	2.5	A	violation	1	0.9280402990116272
508.48997547201	2.5	A	nonviolation	1	0.9880871500063222
511.4899407130142	2.5	B	nonviolation	0	0.7601164020015858
514.4898881810077	2.5	B	violation	0	0.9951696479984092
517.4898566990161	2.5	B	nonviolation	1	0.7261266559944488
520.4898038819956	2.5	B	violation	0	0.6912538510223385
523.489763324993	2.5	A	violation	1	1.2382928910083135
526.4897329180094	2.5	A	violation	1	0.6143262689874973
529.4896791030187	2.5	A	nonviolation	0	0.5893834479793439
532.4896412730159	2.5	B	violation	1	0.7214215619897004
535.4895978190181	2.5	B	nonviolation	1	0.8724690160015598
538.4895548640052	2.5	A	nonviolation	1	0.6845134739996865
541.4895152419922	2.5	A	violation	1	0.6485461470147129
544.4894726400089	2.5	A	nonviolation	1	0.5185869479901157
547.4894359430182	2.5	B	nonviolation	0	0.6846350559790153
550.4893888950173	2.5	B	nonviolation	1	0.910672275989782
553.4893502230117	2.5	A	nonviolation	1	0.6267349089903291
556.4893047389924	2.5	A	nonviolation	1	0.5677601080096792
559.4892676910093	2.5	B	nonviolation	1	1.0707990679948125
562.4892225670046	2.5	B	nonviolation	0	0.8228425509878434
565.472513916	2.5	B	nonviolation	1	0.7105508749955334
568.4724711379968	2.5	B	violation	0	1.0805976850097068
571.4724256790067	2.5	B	violation	1	0.6436478619871195
574.4723885309941	2.5	A	violation	1	0.8746829669980798
577.4723456079955	2.5	A	nonviolation	1	1.1167182339995634
580.4723011570168	2.5	B	violation	0	0.8277711839764379
583.4722654490032	2.5	B	violation	1	0.8667921140149701
586.4722208449966	2.5	B	violation	1	0.6158506229985505
