onset	duration	trial_type	condition	response_accuracy	response_time
13.501915299042597	2.5	A	nonviolation	1	0.8947012290009297
16.501874998037238	2.5	B	nonviolation	1	0.931734322977718
19.501835117989682	2.5	A	nonviolation	1	0.7418051280546933
22.501795754011255	2.5	B	nonviolation	0	0.7387439369922504
25.50175636203494	2.5	A	nonviolation	1	0.8188623400055803
28.501718490035273	2.5	A	violation	1	0.6363816369557753
31.501677106018175	2.5	B	nonviolation	1	1.0709393440047281
34.501643272989895	2.5	B	nonviolation	0	0.9649785670335403
37.50159852800425	2.5	A	violation	1	0.748015024990309
40.50155896204524	2.5	A	violation	1	0.8060520039871335
43.501519242010545	2.5	A	nonviolation	1	0.7050203880062327
46.50147960701725	2.5	B	violation	1	0.8191317439777777
49.50143803301034	2.5	A	nonviolation	1	0.6541428589844145
52.501406900002614	2.5	B	violation	0	0.7692116459948011
55.50135704700371	2.5	A	nonviolation	1	1.0602609580382705
58.501320478040725	2.5	B	violation	0	0.8692947939853184
61.50127855502068	2.5	A	violation	1	0.6863659549853764
64.50123836199053	2.5	A	nonviolation	1	0.6363810550537892
67.50119858200196	2.5	B	nonviolation	1	0.8484204180422239
70.50116054102546	2.5	A	nonviolation	1	0.6304573310189879
73.50112052599434	2.5	A	violation	1	0.8074952030437998
76.50108025001828	2.5	A	nonviolation	1	0.8445433339802548
79.50103822402889	2.5	B	violation	0	0.8845775579684414
82.50100029900204	2.5	B	violation	1	0.8296151820104569
85.50096013303845	2.5	B	violation	1	0.9885860459762624
88.50092019804286	2.5	A	nonviolation	1	0.7247003269731067
91.50087973603512	2.5	B	nonviolation	0	0.7317431480041705
94.5008396200137	2.5	B	nonviolation	1	0.8827793559757993
97.50080147502013	2.5	B	violation	0	1.1278235780191608
100.500759053044	2.5	A	violation	1	0.6898733959533274
103.50071923300855	2.5	A	violation	1	0.7948288570041768
106.50067845801823	2.5	A	violation	1	0.5769444790203124
109.50063841301017	2.5	A	nonviolation	1	0.7380047760088928
112.50059783802135	2.5	B	nonviolation	1	0.8160320430179127
115.50055757700466	2.5	B	violation	1	0.7340734750032425
118.50051711802372	2.5	A	nonviolation	1	0.7421100090141408
121.50048336799955	2.5	B	nonviolation	0	1.152144321007654
124.50043466902572	2.5	A	violation	1	0.6731872619711794
127.50039611704416	2.5	B	violation	1	0.9992287889472208
130.5003557330347	2.5	B	nonviolation	1	0.9292802540003322
133.50032211100915	2.5	B	violation	1	1.0413072400260717
136.50027507502818	2.5	B	nonviolation	1	1.1113481119973585
139.50023463903926	2.5	B	nonviolation	0	0.7343899889965542
142.50019383401374	2.5	A	violation	1	0.6614388609887101
145.50015331502073	2.5	A	violation	1	1.0854831850156188
148.5001117750071	2.5	A	violation	1	0.6695128940045834
151.50007246399764	2.5	B	violation	0	0.8565638110158034
154.50003220100191	2.5	B	violation	1	0.7875997390365228
157.49999164399927	2.5	B	violation	0	1.0936406800174154
160.4999524730374	2.5	A	nonviolation	1	0.7966784900054336
163.49991060001776	2.5	A	nonviolation	1	0.6797355060116388
166.49986982002156	2.5	B	violation	0	0.8147446520160884
169.49982946703673	2.5	B	nonviolation	1	0.7368084949557671
172.49978858104438	2.5	B	nonviolation	0	0.6348471989622341
175.49974793399448	2.5	B	violation	1	0.7908930340199731
178.4997075610445	2.5	B	violation	0	0.895947492972482
181.49966738699	2.5	A	violation	1	0.7779679960221983
184.4996243939968	2.5	A	violation	1	1.0990079260081984
187.499585965008	2.5	B	nonviolation	0	1.1690495620132424
190.49954486504433	2.5	A	nonviolation	1	0.9080944349989296
193.49950218200684	2.5	B	violation	0	0.7311290000216104
196.49946380604527	2.5	A	nonviolation	1	0.8761721309856512
199.4994225400151	2.5	B	violation	1	0.7770687990123406
202.49938114901303	2.5	A	violation	1	0.9272634399821982
205.49933884001805	2.5	B	violation	1	0.9732968240277842
208.49930127803242	2.5	B	nonviolation	1	1.04733483097516
211.49925953301133	2.5	A	nonviolation	1	0.6543786959955469
214.4992188379984	2.5	B	violation	1	0.9444370240089484
217.49917830701446	2.5	A	nonviolation	1	0.8644794640131295
220.4991371860378	2.5	A	violation	1	0.7714522739988752
223.4990963690216	2.5	A	violation	1	0.6185481789871119
226.49905572604618	2.5	B	nonviolation	1	0.9546363179688342
229.49901490902997	2.5	B	nonviolation	1	0.9286586149828508
232.49897445202805	2.5	B	nonviolation	1	1.0196613550069742
235.49893158202758	2.5	B	nonviolation	0	0.7947088369983248
238.4988906950457	2.5	A	nonviolation	1	0.6377543129492551
241.4988519170438	2.5	B	nonviolation	1	0.9697856249986216
244.49881116504548	2.5	B	nonviolation	1	1.0588285989942958
247.49877013399964	2.5	A	nonviolation	1	0.7248842680128291
250.49872951	2.5	A	nonviolation	1	0.6819112930097617
253.49868668703132	2.5	A	violation	1	0.7369558839709498
256.4986475220066	2.5	A	violation	1	0.5779973299941048
259.49860896199243	2.5	B	violation	0	0.9210369120119141
262.4985622949898	2.5	B	violation	0	0.7931058350368403
265.4985251390026	2.5	A	nonviolation	1	0.8031171640031971
268.49848427204415	2.5	B	nonviolation	1	0.9091640209662728
271.49844269501045	2.5	A	violation	1	0.6012093750177883
274.4984014640213	2.5	A	nonviolation	1	0.9892500059795566
277.49836115003563	2.5	B	violation	1	0.7562926919781603
280.49832490901457	2.5	A	nonviolation	1	0.7993231809814461
283.49827935703803	2.5	B	nonviolation	1	0.8793620299547911
286.4982385100448	2.5	B	violation	0	0.8474163329810835
289.49819494003896	2.5	A	violation	1	0.7004578780033626
292.49815667403163	2.5	A	violation	1	1.0424882179941048
295.4981157490401	2.5	A	violation	1	0.6915044419583865
298.49807468801737	2.5	A	violation	1	0.8185789919807576
301.4980316529982	2.5	A	nonviolation	1	0.666612740023993
304.497990908043	2.5	B	violation	1	0.9845797999878414
307.4979518550099	2.5	A	nonviolation	1	0.8196952680009417
310.49791108502535	2.5	A	violation	1	0.8667380929691717
313.4978708089912	2.5	B	nonviolation	0	0.9567841940443031
316.4978273400338	2.5	A	nonviolation	1	0.7568257660022937
319.49778784101363	2.5	A	violation	1	0.9807725350256078
322.49774446402444	2.5	A	violation	1	0.6899113570107147
325.49770432902733	2.5	A	nonviolation	1	0.824949845962692
328.49766499199905	2.5	B	nonviolation	0	1.0329843740328215
331.49762239999836	2.5	B	nonviolation	0	1.1190303619951008
334.4975834020297	2.5	B	nonviolation	1	0.8200646959594451
337.49754223902715	2.5	B	nonviolation	1	1.0790886959875934
340.4975016569952	2.5	A	violation	1	0.7081477530300617
343.4974599630222	2.5	B	nonviolation	1	1.0122017280082218
346.49741934804484	2.5	B	violation	0	1.0072389830020256
349.4973784130416	2.5	A	violation	1	0.6532792259822601
352.49733724404365	2.5	A	nonviolation	1	0.5913150329724886
355.49729624699097	2.5	B	violation	0	1.2153564930194989
358.4972558800364	2.5	B	violation	0	0.9374068329925648
361.4972127670189	2.5	B	violation	0	0.9774444390204736
364.4971733280108	2.5	B	violation	1	1.1255609689978885
367.4971312370035	2.5	B	violation	1	1.0205394910299221
370.4970907410025	2.5	A	violation	1	0.6935720120090991
373.497049675032	2.5	B	violation	1	0.6536106750136241
376.4970084440429	2.5	A	violation	1	1.1215523419668898
379.4969678299967	2.5	B	nonviolation	1	1.0646933360258115
382.4969326159917	2.5	B	nonviolation	1	1.098756712046452
385.4968880840461	2.5	A	nonviolation	1	1.001768983958755
388.48017508198967	2.5	B	violation	0	1.0824891250231303
391.4801348710316	2.5	A	nonviolation	1	0.8295273419935256
394.4967628120212	2.5	A	nonviolation	1	0.8879015329875983
397.4967214459903	2.5	A	nonviolation	1	0.5229411780019291
400.49668054300133	2.5	A	nonviolation	1	0.813990842027124
403.4799726560013	2.5	B	nonviolation	1	1.022685587988235
406.4799302450265	2.5	A	nonviolation	1	0.6237377719953656
409.4798913270352	2.5	A	violation	1	0.7187728770077229
412.47985114098987	2.5	A	violation	1	0.6158152010175401
415.479809491022	2.5	B	violation	0	0.9228525530197658
418.4797655500006	2.5	A	violation	1	0.683897070994135
421.4797267710092	2.5	A	nonviolation	1	0.689942198980134
424.47968531999504	2.5	A	violation	1	0.6409871320356615
427.47964420600334	2.5	B	nonviolation	0	0.7400194350047968
430.47960408101784	2.5	B	nonviolation	1	0.9060567090054974
433.4795625589904	2.5	A	violation	1	1.1261017030337823
436.479521218047	2.5	B	nonviolation	1	1.0050640579429455
439.479477891	2.5	B	violation	1	0.8761923410347663
442.4794385750429	2.5	B	violation	1	0.6852331109694205
445.47939728404157	2.5	B	violation	0	0.8752723719808273
448.47935613803566	2.5	B	violation	0	1.057390203990508
451.4793151100166	2.5	A	violation	1	0.8593539450084791
454.4792746690218	2.5	A	violation	1	0.6263900939957239
457.4792327660252	2.5	A	violation	1	0.7034443099983037
460.47919188102236	2.5	A	violation	1	0.8424764199880883
463.4791506699985	2.5	A	nonviolation	1	0.6545229330076836
466.47911109303817	2.5	B	violation	1	0.9515608289511874
469.47906845802214	2.5	A	nonviolation	1	0.9306094159837812
472.47902749798965	2.5	B	violation	0	1.0916436970001089
475.47898750804603	2.5	B	violation	0	0.9186925219837576
478.47894483304117	2.5	B	nonviolation	1	0.9096376649686136
481.4789070709958	2.5	B	violation	0	1.0007693360093979
484.47886302304687	2.5	B	nonviolation	0	0.7078064989764243
487.4788219420007	2.5	A	nonviolation	1	0.6778569190064445
490.47878070600564	2.5	B	nonviolation	1	0.7738909320323728
493.478739578044	2.5	A	nonviolation	1	0.7179409169475548
496.47869627701584	2.5	A	violation	1	0.8959801890305243
499.4786572210142	2.5	A	nonviolation	1	0.7630240310099907
502.47861613001436	2.5	B	nonviolation	1	0.7650744210113771
505.4785748790018	2.5	B	nonviolation	1	0.8591045730281621
508.47853408701485	2.5	B	violation	1	0.6771401030127889
511.47849276801566	2.5	B	violation	0	0.7731880170176737
514.4784526570002	2.5	A	violation	0	0.6572289760224521
517.4784105390427	2.5	A	nonviolation	1	0.6202633179491386
520.4783686940208	2.5	B	violation	0	0.8083112009917386
523.4783261700068	2.5	A	nonviolation	1	0.8003575440379791
526.4782853670185	2.5	B	nonviolation	0	1.0083880869788118
529.4782460210263	2.5	A	nonviolation	1	0.6053749209968373
532.4782048780471	2.5	A	nonviolation	1	0.7364716629963368
535.4781633490346	2.5	A	nonviolation	1	0.8125219339854084
538.4781204740284	2.5	A	violation	1	0.6495647690026091
541.4780810590019	2.5	B	violation	0	0.9524622070020996
544.4780399510055	2.5	B	nonviolation	1	1.154617686988786
547.4779983939952	2.5	A	violation	1	0.8366851480095647
550.4779572460102	2.5	B	nonviolation	0	1.15872714901343
553.4779159500031	2.5	B	nonviolation	1	1.146686549007427
556.4778778140317	2.5	B	violation	1	1.0988036560011096
559.4778355050366	2.5	B	nonviolation	0	0.7428455819608644
562.4777897050371	2.5	A	violation	1	1.3158990179654209
565.4777513070147	2.5	A	nonviolation	1	0.9439344350248576
568.4777098200284	2.5	B	violation	0	0.8919806479825638
571.4776687769918	2.5	B	nonviolation	1	1.0610218030051328
574.4776291720336	2.5	B	nonviolation	1	1.0140763949602842
577.4775863850373	2.5	A	violation	1	0.7500994699657895
580.4775449360022	2.5	A	violation	1	0.6981466540019028
583.477501677	2.5	A	nonviolation	1	0.6481899690115824
586.4774626520231	2.5	A	violation	1	0.6372984339832328
