onset	duration	trial_type	condition	repetition	pairmate	pairID	category	subcategory	response_accuracy	response_time
13.499741663923487	1	prelearning	violation	1	B	25	scene	outdoor	1	0.4984117320273072
16.499709971947595	1	prelearning	nonviolation	1	B	79	scene	indoor	1	0.5473882760852575
19.4996642221231	1	prelearning	nonviolation	1	A	73	scene	outdoor	1	0.4504863999318332
22.499622785020623	1	prelearning	violation	1	B	32	scene	indoor	1	0.5755366159137338
25.49958871211857	1	prelearning	violation	1	A	29	scene	indoor	1	0.7325742579996586
28.499549089930948	1	prelearning	violation	1	B	31	scene	outdoor	1	0.389607290038839
31.499542593955997	1	prelearning	nonviolation	1	B	74	scene	outdoor	1	0.7176195040810853
34.49946128204465	1	prelearning	violation	1	A	30	scene	indoor	1	1.0146932250354441
37.49942826200277	1	prelearning	violation	1	B	28	scene	indoor	1	0.6317314540501684
40.49938195105642	1	prelearning	nonviolation	1	B	77	scene	indoor	1	0.4887770339846611
43.49934231606312	1	prelearning	nonviolation	1	A	74	scene	indoor	1	0.7538171340711415
46.49930804502219	1	prelearning	violation	1	B	27	scene	indoor	1	0.7768513129558414
49.49927077605388	1	prelearning	violation	1	A	32	scene	outdoor	1	0.5518953870050609
52.49922637711279	1	prelearning	nonviolation	1	B	73	scene	outdoor	1	0.974935236852616
55.499188354006044	1	prelearning	nonviolation	1	B	76	scene	outdoor	1	0.5649755219928921
58.49914565705694	1	prelearning	nonviolation	1	B	75	scene	outdoor	0	0.5470193920191377
61.499107148032635	1	prelearning	nonviolation	1	A	78	scene	indoor	1	0.5270528690889478
64.49906554608606	1	prelearning	violation	1	A	28	scene	outdoor	1	0.7320976180490106
67.49902350804769	1	prelearning	violation	1	B	30	scene	indoor	1	0.8841406179126352
70.49898319714704	1	prelearning	violation	1	A	26	scene	outdoor	1	0.7601812358479947
73.49894650699571	1	prelearning	nonviolation	1	A	75	scene	outdoor	1	0.4772179280407727
76.49891061009839	1	prelearning	nonviolation	1	A	77	scene	outdoor	1	0.4302519098855555
79.49886306002736	1	prelearning	violation	1	B	26	scene	outdoor	1	0.405297450022772
82.49882410699502	1	prelearning	violation	1	A	31	scene	outdoor	1	0.4743408539798111
85.49878302915022	1	prelearning	nonviolation	1	B	78	scene	indoor	1	0.6173771789763123
88.4987432239577	1	prelearning	nonviolation	1	A	80	scene	outdoor	1	0.8954223589971662
91.4987083170563	1	prelearning	nonviolation	1	A	79	scene	indoor	1	0.6644825448747724
94.49866741592994	1	prelearning	violation	1	A	27	scene	indoor	1	0.6224989600013942
97.49861987493931	1	prelearning	violation	1	B	29	scene	outdoor	1	0.7445493440609425
100.49858319014312	1	prelearning	nonviolation	1	A	76	scene	indoor	1	0.8085815678350627
103.49854642292485	1	prelearning	violation	1	A	25	scene	indoor	1	0.7956246340181679
106.4984994351398	1	prelearning	nonviolation	1	B	80	scene	indoor	1	0.8716674658935517
109.49845937406643	1	learning	nonviolation	2	A	73	scene	outdoor	1	0.5986834620125592
112.49841933394781	1	learning	nonviolation	2	B	73	scene	outdoor	1	0.5987528190016747
115.49837831314652	1	learning	nonviolation	2	A	74	scene	indoor	1	0.5577901587821543
118.49833627813496	1	learning	nonviolation	2	B	74	scene	outdoor	1	0.6158391719218343
121.49829561798832	1	learning	violation	2	A	25	scene	indoor	1	0.4128785850480199
124.49826101609507	1	learning	violation	2	B	25	scene	outdoor	1	0.3999098448548466
127.49821268208322	1	learning	violation	2	A	26	scene	outdoor	1	0.4319491968490184
130.49817659403195	1	learning	violation	2	B	26	scene	outdoor	1	0.5489270810503513
133.49816142814234	1	learning	nonviolation	2	A	75	scene	outdoor	1	0.4850140369962901
136.49810234992765	1	learning	nonviolation	2	B	75	scene	outdoor	1	0.5700717731378973
139.49805869301778	1	learning	violation	2	A	27	scene	indoor	1	0.7161260771099478
142.49802058003843	1	learning	violation	2	B	27	scene	indoor	1	0.4231689570005983
145.49796994309872	1	learning	violation	3	A	25	scene	indoor	1	0.6112050339579582
148.49792920099569	1	learning	violation	3	B	25	scene	outdoor	1	0.42324767797254026
151.4978868770413	1	learning	nonviolation	2	A	76	scene	indoor	1	0.6572832618840039
154.49784643994644	1	learning	nonviolation	2	B	76	scene	outdoor	1	0.5613247901201248
157.497805604944	1	learning	nonviolation	2	A	77	scene	outdoor	1	0.3913681982085109
160.4977637301199	1	learning	nonviolation	2	B	77	scene	indoor	1	0.5244132769294083
163.49772306601514	1	learning	violation	2	A	28	scene	outdoor	1	0.7054491681046784
166.497684055008	1	learning	violation	2	B	28	scene	indoor	1	0.4884943389333785
169.49764204514213	1	learning	nonviolation	2	A	78	scene	indoor	1	0.9085345729254186
172.49760169303045	1	learning	nonviolation	2	B	78	scene	indoor	1	0.5245776129886508
175.49757314706218	1	learning	nonviolation	3	A	75	scene	outdoor	1	0.5646088619250804
178.49752147914842	1	learning	nonviolation	3	B	75	scene	outdoor	1	0.5956534459255636
181.4974832460284	1	learning	violation	3	A	26	scene	outdoor	1	0.6976922189351171
184.4974395539612	1	learning	violation	3	B	26	scene	outdoor	1	0.7007403650786728
187.49739654595032	1	learning	nonviolation	3	A	74	scene	indoor	1	0.5297806761227548
190.4973605750129	1	learning	nonviolation	3	B	74	scene	outdoor	1	0.6348193569574505
193.4973154249601	1	learning	nonviolation	3	A	73	scene	outdoor	1	0.476867076009512
196.49727369705212	1	learning	nonviolation	3	B	73	scene	outdoor	1	0.6249098218977451
199.49723411002202	1	learning	nonviolation	3	A	76	scene	indoor	1	0.5559486639685929
202.49719295208342	1	learning	nonviolation	3	B	76	scene	outdoor	1	0.5819842179771513
205.49715397204272	1	learning	violation	4	A	26	scene	outdoor	1	0.6000234589446336
208.49711006903092	1	learning	violation	4	B	26	scene	outdoor	1	0.5700693530961871
211.4970800760202	1	learning	violation	2	A	29	scene	indoor	1	0.6951024569571018
214.49702762509696	1	learning	violation	2	B	29	scene	outdoor	1	0.5101509320084006
217.4969862280413	1	learning	nonviolation	3	A	77	scene	outdoor	1	0.456195673905313
220.49694848596118	1	learning	nonviolation	3	B	77	scene	indoor	0	0.4542330719996244
223.4969102370087	1	learning	nonviolation	4	A	74	scene	indoor	1	0.5362754401285201
226.4968618911225	1	learning	nonviolation	4	B	74	scene	outdoor	1	0.5303241750225425
229.49681911896914	1	learning	violation	3	A	28	scene	outdoor	1	0.5223756909836084
232.49679253902286	1	learning	violation	3	B	28	scene	indoor	0	0.3813928770832717
235.49674721993503	1	learning	violation	2	A	30	scene	indoor	1	0.8434353680349886
238.49670145311399	1	learning	violation	2	B	30	scene	indoor	1	1.021479852963239
241.49665787396958	1	restudy	nonviolation	5	B	74	scene	outdoor	1	0.5375506021082401
244.4966242120136	1	learning	nonviolation	2	A	79	scene	indoor	1	0.517574560130015
247.49657985009256	1	learning	nonviolation	2	B	79	scene	indoor	1	0.5226101470179856
250.49653928610496	1	learning	violation	3	A	27	scene	indoor	1	0.5416487490292639
253.49649609997869	1	learning	violation	3	B	27	scene	indoor	1	0.5306889009661973
256.4964577560313	1	learning	nonviolation	4	A	75	scene	outdoor	1	0.5917302600573748
259.49640854494646	1	learning	nonviolation	4	B	75	scene	outdoor	1	0.5827797940000892
262.4963781940751	1	learning	nonviolation	4	A	76	scene	indoor	1	0.5528094859328121
265.4963400410488	1	learning	nonviolation	4	B	76	scene	outdoor	1	0.4508572409395129
268.496298060054	1	learning	violation	4	A	25	scene	indoor	1	0.5898889659438282
271.49625037098303	1	learning	violation	4	B	25	scene	outdoor	1	0.8209413751028478
274.4962084831204	1	learning	nonviolation	3	A	78	scene	indoor	1	0.6519786359276623
277.49617552314885	1	learning	nonviolation	3	B	78	scene	indoor	1	0.6980245269369334
280.4961319980212	1	learning	violation	4	A	27	scene	indoor	1	0.7480609531048685
283.4960916470736	1	learning	violation	4	B	27	scene	indoor	1	0.491095073055476
286.4960464411415	1	restudy	nonviolation	6	B	74	scene	outdoor	1	0.53214644594118
289.4960029290524	1	learning	violation	2	A	31	scene	outdoor	1	0.5761918069329113
292.4959669241216	1	learning	violation	2	B	31	scene	outdoor	1	0.4841862029861659
295.49592969007784	1	learning	nonviolation	4	A	73	scene	outdoor	1	0.4052644050680101
298.4958861940541	1	learning	nonviolation	4	B	73	scene	outdoor	1	0.5053415440488607
301.49583478504786	1	violation	violation	5	A	26	scene	outdoor	1	0.5063584588933736
304.49579287995584	1	violation	violation	1	X	26	face	male	1	0.7563981669954956
307.49575332994567	1	learning	violation	3	A	29	scene	indoor	1	0.5534429990220815
310.49571114405984	1	learning	violation	3	B	29	scene	outdoor	1	0.4874855258967728
313.49566861311905	1	learning	violation	4	A	28	scene	outdoor	1	0.4965245558414608
316.49562908592634	1	learning	violation	4	B	28	scene	indoor	1	0.5495655122213066
319.49559542606585	1	restudy	nonviolation	5	B	73	scene	outdoor	1	0.4995988849550486
322.4955463011284	1	learning	nonviolation	4	A	77	scene	outdoor	1	0.8036491489037871
325.4955042800866	1	learning	nonviolation	4	B	77	scene	indoor	1	1.199637173907831
328.4954629689455	1	learning	nonviolation	3	A	79	scene	indoor	1	0.4467373969964683
331.4954304769635	1	learning	nonviolation	3	B	79	scene	indoor	1	0.4077706399839371
334.49537928099744	1	learning	nonviolation	4	A	78	scene	indoor	1	0.4668180090375245
337.4953426120337	1	learning	nonviolation	4	B	78	scene	indoor	1	0.4158618990331888
340.49529803707264	1	restudy	nonviolation	5	B	75	scene	outdoor	1	0.7279012568760663
343.4952598591335	1	violation	violation	5	A	25	scene	indoor	1	0.5919402909930795
346.4952148739248	1	violation	violation	1	X	25	face	male	1	0.5599801400676371
349.4951735551004	1	learning	violation	3	A	30	scene	indoor	0	0.7300299298949541
352.49513077200385	1	learning	violation	3	B	30	scene	indoor	1	0.4700644910335541
355.49509335099714	1	learning	violation	2	A	32	scene	outdoor	1	0.485104874940589
358.49504868406797	1	learning	violation	2	B	32	scene	indoor	1	0.5341474360320717
361.49501002696337	1	restudy	violation	5	B	26	scene	outdoor	1	0.6391966741066426
364.49496765993536	1	restudy	nonviolation	6	B	75	scene	outdoor	1	0.5392300020903349
367.49492737697443	1	restudy	nonviolation	5	B	76	scene	outdoor	1	0.8232784220017493
370.4948869701475	1	violation	violation	5	A	28	scene	outdoor	1	0.8203144059516491
373.494841942098	1	violation	violation	1	X	28	face	female	0	0.592361246002838
376.4948045560159	1	learning	violation	3	A	31	scene	outdoor	1	0.4364000190980733
379.49476144509384	1	learning	violation	3	B	31	scene	outdoor	1	0.5144434350077063
382.49471880798234	1	violation	violation	5	A	27	scene	indoor	1	0.5714169689454138
385.4946800279431	1	violation	violation	1	X	27	face	female	1	0.4565220070071518
388.4946376620792	1	restudy	nonviolation	6	B	76	scene	outdoor	1	0.6615682318806648
391.49460147810163	1	learning	violation	4	A	29	scene	indoor	1	0.521573917940259
394.49455519206816	1	learning	violation	4	B	29	scene	outdoor	1	0.4506295339670032
397.4945145330858	1	violation	violation	6	A	26	scene	outdoor	1	0.5716904089786112
400.4944731690921	1	violation	violation	1	Y	26	face	male	1	0.5837332848459482
403.4944283640944	1	restudy	nonviolation	6	B	73	scene	outdoor	1	0.4957823888398707
406.4943884310778	1	learning	violation	3	A	32	scene	outdoor	1	0.5428150468505919
409.4943495229818	1	learning	violation	3	B	32	scene	indoor	1	0.5668550559785217
412.49430613708677	1	learning	nonviolation	4	A	79	scene	indoor	1	0.5908982330001891
415.4942770460621	1	learning	nonviolation	4	B	79	scene	indoor	1	0.6669355160556734
418.49422552203765	1	learning	nonviolation	2	A	80	scene	outdoor	1	0.8999844340141863
421.49419319094164	1	learning	nonviolation	2	B	80	scene	indoor	1	0.5600162621121854
424.49414414307097	1	restudy	nonviolation	5	B	77	scene	indoor	1	0.5410674458835274
427.49409823003225	1	learning	violation	4	A	30	scene	indoor	1	0.7891079001128674
430.49406173103483	1	learning	violation	4	B	30	scene	indoor	1	0.5731503369752318
433.4940163970459	1	restudy	nonviolation	5	B	78	scene	indoor	1	0.4881899210158736
436.4772957300302	1	learning	violation	4	A	31	scene	outdoor	1	0.4619128820486367
439.4772582331207	1	learning	violation	4	B	31	scene	outdoor	1	0.4109513310249895
442.4772162060252	1	violation	violation	5	A	29	scene	indoor	1	0.5969955190084875
445.4771726110485	1	violation	violation	1	X	29	face	male	1	0.5730390329845251
448.47713597002434	1	restudy	violation	5	B	25	scene	outdoor	1	0.6240771259181201
451.4770929729566	1	restudy	nonviolation	6	B	78	scene	indoor	1	0.6881157690659165
454.4770580190234	1	restudy	violation	6	B	26	scene	outdoor	1	0.5331563900690526
457.4770132091362	1	restudy	nonviolation	5	B	79	scene	indoor	1	0.5252001518383622
460.47697127796715	1	violation	violation	5	A	30	scene	indoor	0	0.5432411869987845
463.4769301300403	1	violation	violation	1	X	30	face	female	1	0.6102836818899959
466.4768894179724	1	learning	nonviolation	3	A	80	scene	outdoor	1	0.9013276321347804
469.4768493620213	1	learning	nonviolation	3	B	80	scene	indoor	1	0.6713690159376711
472.4768080560025	1	restudy	violation	5	B	28	scene	indoor	1	0.4844069669488818
475.47676694300026	1	learning	violation	4	A	32	scene	outdoor	1	0.8364581889472902
478.47672751406213	1	learning	violation	4	B	32	scene	indoor	1	0.8154863030649722
481.47667985898437	1	restudy	violation	5	B	27	scene	indoor	1	0.4685368870850653
484.4766462950502	1	restudy	nonviolation	6	B	77	scene	indoor	1	0.4965674648992717
487.4766000560485	1	violation	violation	5	A	32	scene	outdoor	1	0.5406167379114777
490.47656357008964	1	violation	violation	1	X	32	face	female	1	0.5276558620389551
493.4765200910624	1	restudy	nonviolation	6	B	79	scene	indoor	1	0.5476959759835154
496.4764907320496	1	learning	nonviolation	4	A	80	scene	outdoor	1	1.1407295919489115
499.4764455759432	1	learning	nonviolation	4	B	80	scene	indoor	1	0.4677690400276333
502.4764033069369	1	restudy	violation	5	B	30	scene	indoor	1	0.7118120749946684
505.4763658230658	1	restudy	violation	5	B	32	scene	indoor	1	0.5038598410319537
508.4763185121119	1	restudy	nonviolation	5	B	80	scene	indoor	1	0.5209040120244026
511.4762736321427	1	violation	violation	6	A	30	scene	indoor	1	0.529943433823064
514.476231303066	1	violation	violation	1	Y	30	face	female	1	0.8040141200181097
517.476188192144	1	violation	violation	5	A	31	scene	outdoor	1	0.6140288650058211
520.4761497960426	1	violation	violation	1	X	31	face	male	1	0.546068737981841
523.4761058411094	1	violation	violation	6	A	25	scene	indoor	1	0.5071137789636849
526.4760648349767	1	violation	violation	1	Y	25	face	male	1	0.5601550780702382
529.4760261380578	1	restudy	nonviolation	6	B	80	scene	indoor	1	0.5051154580432922
532.4759804629721	1	restudy	violation	5	B	29	scene	outdoor	1	0.6972406210843474
535.4759427790997	1	restudy	violation	6	B	25	scene	outdoor	1	0.98228208697401
538.4759023550432	1	violation	violation	6	A	28	scene	outdoor	1	0.9033227430190892
541.4758569730911	1	violation	violation	1	Y	28	face	female	1	0.6813671910203993
544.4758187450934	1	violation	violation	6	A	29	scene	indoor	1	0.6454090848565102
547.4757749249693	1	violation	violation	1	Y	29	face	male	1	0.5274479100480676
550.4757330920547	1	violation	violation	6	A	32	scene	outdoor	1	0.729471820872277
553.4756921499502	1	violation	violation	1	Y	32	face	female	1	0.5405329552013427
556.4756612519268	1	restudy	violation	5	B	31	scene	outdoor	1	0.7435636271256953
559.4756078650244	1	restudy	violation	6	B	28	scene	indoor	1	0.5076124661136419
562.4755669301377	1	violation	violation	6	A	27	scene	indoor	1	0.4886583879124373
565.475528107956	1	violation	violation	1	Y	27	face	female	1	0.4806971261277795
568.4754804929253	1	restudy	violation	6	B	30	scene	indoor	1	0.5137476050294936
571.4754435201177	1	violation	violation	6	A	31	scene	outdoor	1	0.4807163958903402
574.4754002240952	1	violation	violation	1	Y	31	face	male	1	0.5948250209912658
577.4753624689765	1	restudy	violation	6	B	27	scene	indoor	1	0.4778633571695536
580.4753162530251	1	restudy	violation	6	B	29	scene	outdoor	1	0.5379223609343171
583.4752780850978	1	restudy	violation	6	B	31	scene	outdoor	1	0.6709490639623255
586.4752356209792	1	restudy	violation	6	B	32	scene	indoor	1	0.5710030121263117
