onset	duration	trial_type	condition	repetition	pairmate	pairID	category	subcategory	response_accuracy	response_time
13.510907312855124	1	prelearning	violation	1	A	44	scene	outdoor	1	0.5389579120092094
16.51088305003941	1	prelearning	nonviolation	1	B	89	scene	outdoor	1	0.5719871229957789
19.51084192097187	1	prelearning	nonviolation	1	A	96	scene	outdoor	0	0.7540303349960595
22.510797203984108	1	prelearning	violation	1	A	42	scene	indoor	1	0.6960758690256625
25.510756517061964	1	prelearning	violation	1	B	45	scene	indoor	1	0.5611169768963009
28.51072177500464	1	prelearning	nonviolation	1	A	95	scene	outdoor	1	0.522147653857246
31.51066929497756	1	prelearning	nonviolation	1	A	90	scene	outdoor	1	0.524204860907048
34.51063940790482	1	prelearning	nonviolation	1	A	93	scene	indoor	1	0.7522374759428203
37.51059973798692	1	prelearning	violation	1	B	44	scene	outdoor	1	0.6542674228549004
40.51055388804525	1	prelearning	nonviolation	1	B	95	scene	outdoor	1	0.5193174618761986
43.510502862976864	1	prelearning	violation	1	B	48	scene	indoor	1	0.5873705470003188
46.51047199498861	1	prelearning	violation	1	B	43	scene	indoor	1	0.4843956169206649
49.510436843847856	1	prelearning	violation	1	A	41	scene	outdoor	1	0.5974424451123923
52.51039610197768	1	prelearning	violation	1	A	47	scene	indoor	1	0.8034782288596034
55.510352216893814	1	prelearning	nonviolation	1	A	92	scene	indoor	1	0.5405279451515526
58.51030882494524	1	prelearning	nonviolation	1	B	94	scene	indoor	1	0.507560625905171
61.51026438898407	1	prelearning	nonviolation	1	B	90	scene	indoor	1	0.5366115120705217
64.51022493699566	1	prelearning	nonviolation	1	B	91	scene	outdoor	1	0.5026754830032587
67.5101939670276	1	prelearning	nonviolation	1	B	92	scene	indoor	1	0.4646806179080159
70.51015685591847	1	prelearning	violation	1	A	45	scene	indoor	1	0.5426877459976822
73.51011343486607	1	prelearning	nonviolation	1	A	91	scene	outdoor	1	0.4476779990363866
76.51007449184543	1	prelearning	violation	1	A	46	scene	indoor	1	0.5478058080188929
79.51003327593206	1	prelearning	violation	1	A	43	scene	outdoor	1	0.6508420840837061
82.50999357085675	1	prelearning	nonviolation	1	A	89	scene	indoor	1	0.5458852900192142
85.5099585710559	1	prelearning	nonviolation	1	B	93	scene	outdoor	1	0.4769219518639147
88.50990956486203	1	prelearning	violation	1	B	42	scene	indoor	0	0.6789560271427035
91.50987160787918	1	prelearning	violation	1	B	47	scene	outdoor	1	0.5360022420063615
94.50982694490813	1	prelearning	nonviolation	1	B	96	scene	indoor	1	0.7990240200888366
97.50978767406194	1	prelearning	violation	1	A	48	scene	outdoor	1	0.5340967508964239
100.50974733592012	1	prelearning	nonviolation	1	A	94	scene	indoor	1	0.5861351720523089
103.50970420497471	1	prelearning	violation	1	B	46	scene	outdoor	1	0.7581788029056042
106.50966693903321	1	prelearning	violation	1	B	41	scene	outdoor	1	0.5552114369347692
109.50962590589188	1	learning	nonviolation	2	A	89	scene	indoor	1	0.4822562790941447
112.50958484504372	1	learning	nonviolation	2	B	89	scene	outdoor	1	0.473296410869807
115.50953774899244	1	learning	violation	2	A	41	scene	outdoor	1	0.4883431140333414
118.50950848800129	1	learning	violation	2	B	41	scene	outdoor	1	0.7843101490288973
121.50945439795031	1	learning	violation	2	A	42	scene	indoor	1	0.6004348879214376
124.50941324699671	1	learning	violation	2	B	42	scene	indoor	1	0.5884915110655129
127.50937080499716	1	learning	nonviolation	2	A	90	scene	outdoor	1	0.5835251300595701
130.49267642199993	1	learning	nonviolation	2	B	90	scene	indoor	1	0.7812122390605509
133.49261343292892	1	learning	violation	2	A	43	scene	outdoor	1	0.5742707299068571
136.4925676048733	1	learning	violation	2	B	43	scene	indoor	1	0.637315939180553
139.49252998805605	1	learning	violation	3	A	41	scene	outdoor	1	0.5723613798618317
142.4924903488718	1	learning	violation	3	B	41	scene	outdoor	1	0.5813986761495471
145.50912786601108	1	learning	violation	2	A	44	scene	outdoor	1	0.5587648279033601
148.49241266492754	1	learning	violation	2	B	44	scene	outdoor	1	0.5324970891233534
151.49237531796098	1	learning	violation	2	A	45	scene	indoor	1	0.5415106110740453
154.49233303987418	1	learning	violation	2	B	45	scene	indoor	1	0.6385607949923724
157.49229744286276	1	learning	violation	2	A	46	scene	indoor	1	0.5086003630422056
160.4922503968701	1	learning	violation	2	B	46	scene	outdoor	1	0.4506335561163724
163.4922033729963	1	learning	violation	2	A	47	scene	indoor	1	0.5406907298602164
166.4921671480406	1	learning	violation	2	B	47	scene	outdoor	1	0.4917188920080662
169.4921299929265	1	learning	nonviolation	2	A	91	scene	outdoor	1	0.6377594510558993
172.49209354096092	1	learning	nonviolation	2	B	91	scene	outdoor	1	0.7797923889011145
175.49204359599392	1	learning	violation	2	A	48	scene	outdoor	1	0.5088459029793739
178.4920055849943	1	learning	violation	2	B	48	scene	indoor	1	0.6168862329795957
181.4919709658716	1	learning	nonviolation	2	A	92	scene	indoor	1	0.5939204171299934
184.49192046700043	1	learning	nonviolation	2	B	92	scene	indoor	1	0.5109864668920636
187.49188687698918	1	learning	nonviolation	3	A	91	scene	outdoor	1	0.5000042950268835
190.49184769089334	1	learning	nonviolation	3	B	91	scene	outdoor	1	0.5540388319641352
193.4918063019868	1	learning	violation	3	A	43	scene	outdoor	1	0.7970319769810885
196.49176638992503	1	learning	violation	3	B	43	scene	indoor	0	0.6111272799316794
199.49172570486556	1	learning	nonviolation	3	A	92	scene	indoor	1	0.5941701901610941
202.4916748718824	1	learning	nonviolation	3	B	92	scene	indoor	1	0.7292171011213213
205.49163747602142	1	learning	violation	3	A	44	scene	outdoor	1	0.5082548218779266
208.4916022019461	1	learning	violation	3	B	44	scene	outdoor	1	0.7112141589168459
211.49157059495337	1	learning	nonviolation	3	A	89	scene	indoor	1	0.5893255749251693
214.4915189829189	1	learning	nonviolation	3	B	89	scene	outdoor	1	0.564399688038975
217.4914734470658	1	learning	violation	3	A	48	scene	outdoor	1	0.5574104888364673
220.4914378998801	1	learning	violation	3	B	48	scene	indoor	1	0.531454763142392
223.49138856586066	1	learning	nonviolation	4	A	91	scene	outdoor	1	0.5415126471780239
226.491366121918	1	learning	nonviolation	4	B	91	scene	outdoor	1	0.5205314750783145
229.49131410894915	1	learning	violation	3	A	42	scene	indoor	1	0.5915887760929763
232.4912714238744	1	learning	violation	3	B	42	scene	indoor	0	0.5586248140316457
235.4912242440041	1	learning	violation	4	A	41	scene	outdoor	1	0.5846737730316818
238.49118265183643	1	learning	violation	4	B	41	scene	outdoor	1	0.6147187990136445
241.49114115699197	1	learning	violation	4	A	43	scene	outdoor	1	0.5567584799136966
244.49110201699662	1	learning	violation	4	B	43	scene	indoor	1	0.6248018080368638
247.4910585649777	1	learning	nonviolation	4	A	89	scene	indoor	1	0.5818433859385551
250.4910180058796	1	learning	nonviolation	4	B	89	scene	outdoor	1	0.6128910991828889
253.4909764640033	1	learning	nonviolation	3	A	90	scene	outdoor	1	0.555920128012076
256.49093697196804	1	learning	nonviolation	3	B	90	scene	indoor	1	0.5669622989371419
259.4908944859635	1	learning	violation	3	A	47	scene	indoor	1	0.5880083660595119
262.4908609970007	1	learning	violation	3	B	47	scene	outdoor	1	0.55406449502334
265.4908146050293	1	learning	violation	4	A	42	scene	indoor	1	0.5550196899566799
268.49077187804505	1	learning	violation	4	B	42	scene	indoor	1	0.5201282349880785
271.4907346740365	1	learning	violation	3	A	45	scene	indoor	1	0.6521637579426169
274.49069037591113	1	learning	violation	3	B	45	scene	indoor	1	0.6052189541514963
277.49064862588415	1	learning	violation	3	A	46	scene	indoor	1	0.7392578681465238
280.49061198392883	1	learning	violation	3	B	46	scene	outdoor	1	0.6322927270084621
283.4905650308356	1	learning	violation	4	A	44	scene	outdoor	1	0.5373418121598661
286.49054640391836	1	learning	violation	4	B	44	scene	outdoor	1	0.7183536191005259
289.4904840828385	1	violation	violation	5	A	41	scene	outdoor	0	0.5754211891908199
292.49046039301896	1	violation	violation	1	X	41	face	male	1	0.6744124139659107
295.4904226430226	1	restudy	nonviolation	5	B	89	scene	outdoor	1	0.709482547827065
298.49038293096237	1	learning	nonviolation	2	A	93	scene	indoor	1	0.6525320520158857
301.49031823896803	1	learning	nonviolation	2	B	93	scene	outdoor	1	0.4855860900133848
304.4902887200005	1	learning	violation	4	A	48	scene	outdoor	1	0.6486118920147419
307.4902482780162	1	learning	violation	4	B	48	scene	indoor	1	0.6146595659665763
310.4901996459812	1	violation	violation	5	A	42	scene	indoor	1	0.5547100759577006
313.4901596009732	1	violation	violation	1	X	42	face	female	1	0.5667558019049466
316.49012647685595	1	learning	nonviolation	4	A	92	scene	indoor	1	0.5357793890871108
319.4900803470518	1	learning	nonviolation	4	B	92	scene	indoor	1	0.5618264528457075
322.4900335690472	1	learning	nonviolation	4	A	90	scene	outdoor	1	0.5198760440107435
325.48999606003053	1	learning	nonviolation	4	B	90	scene	indoor	1	0.4999127029441297
328.48995220684446	1	violation	violation	5	A	43	scene	outdoor	1	0.6829622851219028
331.48990702396264	1	violation	violation	1	X	43	face	female	1	0.5119383109267801
334.489868293982	1	restudy	nonviolation	5	B	91	scene	outdoor	1	0.6530423988588154
337.4898284769152	1	learning	nonviolation	3	A	93	scene	indoor	1	0.5460841320455074
340.48979619098833	1	learning	nonviolation	3	B	93	scene	outdoor	1	0.4271106710657477
343.48974418290885	1	learning	violation	4	A	46	scene	indoor	0	0.6621661691460758
346.48971307696775	1	learning	violation	4	B	46	scene	outdoor	1	0.5782050080597401
349.4896619990468	1	learning	violation	4	A	47	scene	indoor	1	0.6352506789844483
352.4896211610176	1	learning	violation	4	B	47	scene	outdoor	1	0.8662904489319772
355.4895911659114	1	restudy	nonviolation	6	B	89	scene	outdoor	1	0.5173192599322647
358.4895464789588	1	restudy	violation	5	B	41	scene	outdoor	1	0.5963680760469288
361.4895055559463	1	violation	violation	5	A	46	scene	indoor	1	0.5204247359652072
364.4894679868594	1	violation	violation	1	X	46	face	male	1	0.5824527139775455
367.48941806587385	1	restudy	nonviolation	5	B	90	scene	indoor	1	0.5104947371874005
370.48937483993365	1	learning	violation	4	A	45	scene	indoor	1	0.5435402591247112
373.48934075189766	1	learning	violation	4	B	45	scene	indoor	0	0.8805805270094424
376.4893026370555	1	learning	nonviolation	2	A	94	scene	indoor	1	0.98461125488393
379.48926295386633	1	learning	nonviolation	2	B	94	scene	indoor	1	0.5926516221370548
382.48921709205024	1	violation	violation	5	A	44	scene	outdoor	1	0.5636719148606062
385.48917335993616	1	violation	violation	1	X	44	face	male	1	0.6527381509076804
388.4891353489365	1	restudy	nonviolation	6	B	91	scene	outdoor	1	0.5417860860470682
391.4890861059539	1	violation	violation	5	A	47	scene	indoor	1	0.5998337070923299
394.4890519918408	1	violation	violation	1	X	47	face	male	1	0.5179054280743003
397.48900164105004	1	learning	nonviolation	4	A	93	scene	indoor	1	0.5729196688625962
400.48896334203886	1	learning	nonviolation	4	B	93	scene	outdoor	1	0.5349522039759904
403.4889319729991	1	violation	violation	5	A	48	scene	outdoor	1	0.5009861108846962
406.488878446864	1	violation	violation	1	X	48	face	female	1	0.5290423990227282
409.4888320800383	1	restudy	violation	5	B	44	scene	outdoor	1	0.6160050248727202
412.48879721784033	1	restudy	violation	5	B	42	scene	indoor	1	0.5401262531522661
415.4887537858449	1	restudy	nonviolation	5	B	92	scene	indoor	1	0.6871688750106841
418.488710280042	1	restudy	violation	5	B	43	scene	indoor	1	0.6302106399089098
421.4886782160029	1	violation	violation	6	A	41	scene	outdoor	0	0.8461797069758177
424.4886380578391	1	violation	violation	1	Y	41	face	male	1	0.722306942101568
427.48859533597715	1	learning	nonviolation	2	A	95	scene	outdoor	1	0.6083224168978631
430.48855388397345	1	learning	nonviolation	2	B	95	scene	outdoor	1	0.5693704548757523
433.4885125129948	1	learning	nonviolation	3	A	94	scene	indoor	1	0.7304170539136976
436.48846474802116	1	learning	nonviolation	3	B	94	scene	indoor	1	0.5564585258252919
439.4884328150656	1	violation	violation	6	A	43	scene	outdoor	1	0.5245061598252505
442.488390567014	1	violation	violation	1	Y	43	face	female	1	0.5965007229242474
445.48834681394516	1	restudy	violation	5	B	46	scene	outdoor	1	0.620605215895921
448.48829892906366	1	learning	nonviolation	3	A	95	scene	outdoor	1	0.6125621439423412
451.4882636780385	1	learning	nonviolation	3	B	95	scene	outdoor	1	0.5116632860153913
454.48822719394235	1	learning	nonviolation	2	A	96	scene	outdoor	1	0.7066979301162064
457.4881746720057	1	learning	nonviolation	2	B	96	scene	indoor	1	0.5977564079221338
460.4881332109217	1	restudy	nonviolation	6	B	90	scene	indoor	1	0.566796702099964
463.4880964939948	1	restudy	violation	5	B	48	scene	indoor	1	0.5228285589255393
466.48805671394797	1	violation	violation	6	A	42	scene	indoor	1	0.5658647369127721
469.4880143450573	1	violation	violation	1	Y	42	face	female	1	0.5168366758152843
472.48796883085737	1	violation	violation	5	A	45	scene	indoor	1	0.5079621230252087
475.48792473203497	1	violation	violation	1	X	45	face	female	1	0.4950084418524057
478.48789581493486	1	restudy	nonviolation	5	B	93	scene	outdoor	1	0.5130330640822649
481.4878441379406	1	restudy	nonviolation	6	B	92	scene	indoor	1	0.5411100380588323
484.48781318985857	1	restudy	violation	5	B	47	scene	outdoor	1	0.5170637781266123
487.48776643699966	1	learning	nonviolation	3	A	96	scene	outdoor	1	0.4791702539660037
490.4877214168664	1	learning	nonviolation	3	B	96	scene	indoor	0	0.4332126951776445
493.48768393299537	1	violation	violation	6	A	44	scene	outdoor	1	0.5132388819474727
496.4876378299669	1	violation	violation	1	Y	44	face	male	1	0.6882939599454403
499.487607734045	1	learning	nonviolation	4	A	94	scene	indoor	1	0.6013246199581772
502.48755303700455	1	learning	nonviolation	4	B	94	scene	indoor	1	0.5833771098405123
505.4875131619629	1	restudy	violation	6	B	43	scene	indoor	1	1.1404178799130025
508.487476601964	1	violation	violation	6	A	48	scene	outdoor	1	0.4824540580157191
511.48742782184854	1	violation	violation	1	Y	48	face	female	1	0.5275034122169018
514.4873943610584	1	restudy	violation	6	B	41	scene	outdoor	1	0.5715694208629429
517.4873428039718	1	learning	nonviolation	4	A	95	scene	outdoor	1	0.6365864190738648
520.4873032718897	1	learning	nonviolation	4	B	95	scene	outdoor	1	0.4766305910889059
523.4872651640326	1	violation	violation	6	A	46	scene	indoor	1	0.5306675028987229
526.4872269430198	1	violation	violation	1	Y	46	face	male	1	0.6177080189809203
529.4871870628558	1	violation	violation	6	A	47	scene	indoor	1	0.5767481080256402
532.487139859004	1	violation	violation	1	Y	47	face	male	1	0.5477985779289156
535.4870962048882	1	restudy	nonviolation	5	B	95	scene	outdoor	1	0.8078402811661363
538.4870620139409	1	learning	nonviolation	4	A	96	scene	outdoor	1	0.516871748957783
541.4870143318549	1	learning	nonviolation	4	B	96	scene	indoor	1	0.605946894036606
544.4869791578966	1	restudy	violation	5	B	45	scene	indoor	1	0.6519590581301601
547.4869424509816	1	restudy	nonviolation	5	B	94	scene	indoor	1	0.5389972128905356
550.4868985610083	1	restudy	violation	6	B	42	scene	indoor	1	0.5740364189259708
553.4868546829093	1	restudy	nonviolation	6	B	95	scene	outdoor	1	0.4560802639462054
556.4868073898833	1	restudy	nonviolation	5	B	96	scene	indoor	1	0.6091291240882128
559.4867655220443	1	restudy	nonviolation	6	B	93	scene	outdoor	1	0.5191739050205797
562.486724694958	1	restudy	nonviolation	6	B	94	scene	indoor	1	0.4742182940244674
565.4867130729834	1	restudy	violation	6	B	44	scene	outdoor	1	0.4362256529275328
568.4866437190212	1	restudy	nonviolation	6	B	96	scene	indoor	1	0.3972960978280753
571.4866006809752	1	restudy	violation	6	B	47	scene	outdoor	1	0.6353337480686605
574.4865676879417	1	violation	violation	6	A	45	scene	indoor	1	0.5333894870709628
577.4698408490513	1	violation	violation	1	Y	45	face	female	1	0.4901020450051874
580.4697997858748	1	restudy	violation	6	B	46	scene	outdoor	1	0.6441467830445617
583.4697583790402	1	restudy	violation	6	B	48	scene	indoor	1	0.5431488349568099
586.486381968949	1	restudy	violation	6	B	45	scene	indoor	1	0.5635579910594971
