onset	duration	trial_type	condition	response_accuracy	response_time
13.505549447145311	2.5	A	violation	1	1.2252716729417443
16.505418652202934	2.5	B	nonviolation	0	1.5133676058612764
19.505373192951087	2.5	B	violation	0	1.550443543121219
22.50534321507439	2.5	B	violation	0	1.2154766102321446
25.505300605203963	2.5	A	violation	1	0.7154398621059954
28.505269933026284	2.5	A	violation	1	1.2805444751866162
31.505227519199252	2.5	B	violation	0	1.1605235347524283
34.50518324319273	2.5	B	violation	1	1.4396405639126897
37.505149969365455	2.5	A	violation	1	1.2236734707839787
40.505106898956	2.5	A	violation	1	0.7666336693800986
43.505077029112734	2.5	B	nonviolation	1	1.3047486669383943
46.50502472836524	2.5	A	nonviolation	1	1.238796847872436
49.5049841683358	2.5	A	violation	1	0.9758385736495256
52.50495357625186	2.5	B	nonviolation	0	1.1137905539944768
55.50491068931297	2.5	A	nonviolation	1	1.139908699784428
58.504879082087434	2.5	A	nonviolation	1	1.0209393701516092
61.50483060022815	2.5	B	nonviolation	0	1.2109931870363653
64.5047820112668	2.5	A	nonviolation	1	0.95404037181288
67.5047542033717	2.5	B	nonviolation	0	1.3360643088817596
70.50471788737924	2.5	B	violation	0	1.1101031848229468
73.50467916205525	2.5	A	nonviolation	1	1.0201460202224553
76.50464086094871	2.5	B	violation	1	1.5931177930906415
79.50459641730413	2.5	A	nonviolation	1	0.9242318817414344
82.50455615296958	2.5	B	violation	1	1.3052571052685382
85.50451349094509	2.5	B	nonviolation	1	1.3753177323378625
88.50453561916946	2.5	A	violation	1	1.410294907167554
91.5044425181113	2.5	A	violation	1	1.0123822689056396
94.50439738295972	2.5	A	violation	1	1.1703557982109487
97.5043640132062	2.5	B	violation	0	1.4354261728003619
100.50431295018645	2.5	A	nonviolation	1	0.9455143138766288
103.50427663139999	2.5	B	nonviolation	0	1.2085535465739667
106.50423543620856	2.5	B	nonviolation	1	1.2835548198781908
109.50419576838611	2.5	B	nonviolation	1	1.4786528400145469
112.5041607329622	2.5	A	nonviolation	1	1.2356686582788825
115.50412329938266	2.5	B	violation	1	1.3547072280198336
118.5040841111913	2.5	A	nonviolation	1	1.1547478791326284
121.50403764424844	2.5	B	violation	0	1.2887927438132465
124.50400308007374	2.5	A	violation	1	1.3408292741514742
127.50396636221558	2.5	B	violation	0	1.337863395921886
130.5039247153327	2.5	A	nonviolation	1	1.2108737449161708
133.50388365006074	2.5	B	nonviolation	0	1.3708726330660284
136.5038466244005	2.5	A	violation	1	1.1739038107916713
139.50380345620218	2.5	A	nonviolation	1	1.3540292978286743
142.50376317230985	2.5	B	nonviolation	1	1.3220701878890395
145.5037188963033	2.5	B	nonviolation	1	1.2271110536530614
148.50368525227532	2.5	A	violation	1	1.229145099874586
151.50364313833416	2.5	A	nonviolation	1	1.322193524800241
154.50360159622502	2.5	B	violation	0	1.3882344607263803
157.50355983199552	2.5	A	nonviolation	1	1.2372800260782242
160.5035155233927	2.5	B	nonviolation	1	1.3623221325688064
163.50348416902125	2.5	A	violation	1	1.1673208349384367
166.50344308139756	2.5	A	nonviolation	1	1.0893452246673403
169.50340391835198	2.5	B	violation	0	1.220436620991677
172.50336397020146	2.5	B	nonviolation	0	1.266475394833833
175.50331328995526	2.5	B	nonviolation	0	1.2664460800588129
178.5032729692757	2.5	B	nonviolation	0	1.280562425032258
181.50323835713792	2.5	B	nonviolation	0	1.3226018231362104
184.50319590838626	2.5	A	violation	1	1.0886456919834018
187.50315664429215	2.5	A	violation	1	1.168656555004418
190.50312306499112	2.5	A	nonviolation	1	1.0087129380553959
193.503082012292	2.5	A	violation	1	1.0567019339650872
196.50304677616802	2.5	B	violation	1	1.1337931691668928
199.50300858030099	2.5	A	violation	1	1.0748331840150058
202.50295558432117	2.5	B	violation	1	1.075919559691101
205.50291570695117	2.5	B	violation	1	1.1979229212738574
208.502886549104	2.5	B	violation	1	1.2899499321356416
211.502842488233	2.5	A	nonviolation	1	1.0030013560317457
214.5027958359569	2.5	B	violation	1	1.2830452183261514
217.50275347195569	2.5	A	violation	1	1.1120881903916595
220.50271576037633	2.5	B	violation	0	0.9791259188205004
223.5026789470576	2.5	A	violation	1	1.142164303921163
226.5026280949824	2.5	B	nonviolation	1	1.230221687350422
229.50259903911498	2.5	A	nonviolation	1	1.068247138056904
232.5025493069552	2.5	A	nonviolation	1	0.98829234438017
235.50251930439842	2.5	A	violation	1	0.7943254178389907
238.50247020134705	2.5	B	violation	0	1.0863174758851528
241.50243115331975	2.5	B	nonviolation	1	1.2404146618209781
244.48571317922324	2.5	B	violation	1	1.1561406017281115
247.48567141313103	2.5	A	nonviolation	1	1.1391739482060077
250.4856306822039	2.5	B	violation	1	1.4191829338669777
253.48559272428972	2.5	A	violation	1	1.1362538230605423
256.5022400682792	2.5	B	violation	1	1.2186086350120604
259.5021978742443	2.5	A	nonviolation	1	0.9036504048854112
262.4854725813493	2.5	A	nonviolation	1	0.839379676617682
265.4854324529879	2.5	A	violation	1	0.7993440553545952
268.4853946501389	2.5	B	nonviolation	0	1.158395984210074
271.4853562060744	2.5	A	nonviolation	1	1.0874724951572716
274.48531548911706	2.5	B	nonviolation	1	1.0845337300561368
277.4852744289674	2.5	B	nonviolation	1	1.096580478362739
280.4852345380932	2.5	A	nonviolation	1	1.2386184209026396
283.48519583418965	2.5	A	violation	1	0.9776553912088276
286.48515379801387	2.5	B	violation	1	1.25569822313264
289.4851138000376	2.5	A	violation	1	1.1887397589161992
292.48507468029857	2.5	B	nonviolation	0	1.3477767477743328
295.4850350529887	2.5	B	nonviolation	1	1.200819335412234
298.4849908170291	2.5	A	nonviolation	1	1.0418558833189309
301.4849496963434	2.5	B	violation	1	1.1228582989424467
304.4849110892974	2.5	B	violation	0	1.0049377377144992
307.4848710410297	2.5	B	nonviolation	0	1.1629779143258931
310.4848310602829	2.5	B	nonviolation	1	1.0720190480351448
313.4847947340458	2.5	B	violation	1	1.096058517228812
316.48474757838994	2.5	A	violation	1	1.0511122918687759
319.48470801627263	2.5	A	nonviolation	1	0.9311483097262679
322.4846646152437	2.5	A	violation	1	1.0201246798969803
325.4846208631061	2.5	A	nonviolation	1	1.2452561859972775
328.4845863161609	2.5	A	nonviolation	1	1.180272120051086
331.4845475461334	2.5	B	nonviolation	0	1.1363160489127042
334.4845038410276	2.5	B	violation	1	1.1313553811050951
337.48447307106113	2.5	A	violation	1	1.044386433903128
340.48443842399865	2.5	B	violation	1	1.2274221060797572
343.4843858531676	2.5	B	violation	1	1.0334773929789662
346.4843461001292	2.5	B	nonviolation	1	1.0995145081542432
349.4843083829619	2.5	A	violation	1	0.9485572362318636
352.48426175909117	2.5	A	violation	1	1.0375980432145298
355.48422310128814	2.5	B	violation	1	0.946637947112322
358.4841821091249	2.5	B	violation	1	1.2936800769530237
361.4841496641748	2.5	B	nonviolation	1	1.1057083648629489
364.4841084913351	2.5	B	nonviolation	0	1.328711475711316
367.48409955110395	2.5	B	violation	1	1.2717605018988252
370.4840251039714	2.5	B	nonviolation	0	1.0418342021293938
373.4839772391133	2.5	A	nonviolation	1	1.2418855102732778
376.4839398949407	2.5	A	nonviolation	1	1.2259191880002618
379.483915918041	2.5	A	nonviolation	1	1.2099499022588134
382.4838883210905	2.5	A	nonviolation	1	1.0059770001098514
385.48383015533915	2.5	A	nonviolation	1	1.1000302908942103
388.48377517238265	2.5	B	nonviolation	1	0.9830916267819704
391.4837370892055	2.5	B	nonviolation	1	1.1221295609138906
394.4836986553855	2.5	A	violation	1	1.0011664549820125
397.4836544492282	2.5	A	violation	1	0.9842061479575932
400.48361625522375	2.5	A	violation	1	0.8592506158165634
403.4835799471475	2.5	A	nonviolation	1	1.0022820821031928
406.48354536527773	2.5	A	nonviolation	1	0.9303201739676296
409.4834935022518	2.5	B	violation	1	0.8843720029108226
412.4834582661279	2.5	A	violation	1	1.1034308532252908
415.483422182966	2.5	A	nonviolation	1	0.9464423591271044
418.48337951628486	2.5	A	violation	1	0.8804891416803002
421.48333834204817	2.5	B	violation	1	1.0355069050565362
424.4832967980765	2.5	B	nonviolation	0	1.1285562519915402
427.48325551534066	2.5	A	violation	1	0.8215532288886607
430.4832224240527	2.5	B	violation	0	1.361651428975165
433.4831828172319	2.5	A	violation	1	0.7876936048269272
436.4831307460554	2.5	B	nonviolation	1	1.0047440859489143
439.48309097904706	2.5	B	nonviolation	0	1.1977291009388864
442.4830568912439	2.5	A	nonviolation	1	0.9447376388125122
445.483012910001	2.5	B	nonviolation	0	1.1718550333753228
448.48296576738363	2.5	A	violation	1	0.9899103390052916
451.48293869616464	2.5	A	nonviolation	1	0.9509377712383866
454.4828881770373	2.5	B	violation	1	1.2209851862862706
457.4828417263925	2.5	A	violation	1	1.023036835715175
460.4828113671392	2.5	B	nonviolation	1	1.0750623368658123
463.4827780681662	2.5	B	nonviolation	1	1.1040961188264191
466.4827300552279	2.5	A	nonviolation	1	1.047074702102691
469.4826882183552	2.5	A	violation	1	0.9981879889965056
472.4826427763328	2.5	B	nonviolation	0	1.3452326566912234
475.4826125781983	2.5	A	nonviolation	1	1.034262603148818
478.48257126426313	2.5	B	violation	1	1.1583040608093145
481.4825233193114	2.5	B	nonviolation	0	1.0713515896350143
484.4824863229878	2.5	A	nonviolation	1	1.0523999109864235
487.48244445817545	2.5	B	violation	1	1.3194033429026604
490.4823996811174	2.5	A	violation	1	0.9694927460514008
493.48236318910494	2.5	A	violation	1	0.9055127049796284
496.48233032925054	2.5	A	nonviolation	1	1.0685479240491986
499.4822879401036	2.5	A	violation	1	0.9765937882475556
502.4822533959523	2.5	B	violation	0	1.3436268391087651
505.48220791202033	2.5	A	nonviolation	1	1.1046704072505236
508.4821637561545	2.5	B	nonviolation	0	1.2487122239544988
511.4821152519434	2.5	B	violation	1	1.043768591247499
514.4820857523009	2.5	B	violation	0	1.072735984809697
517.4820447270758	2.5	B	violation	1	1.0768366330303252
520.4820062131622	2.5	B	nonviolation	1	1.1718782200478015
523.4819569271058	2.5	B	violation	0	1.2319242670200763
526.4819250293076	2.5	B	nonviolation	1	1.290957686956972
529.4818695951253	2.5	B	violation	1	1.3539605461992323
532.4818348181434	2.5	A	violation	1	1.0149707528762522
535.4817972383462	2.5	A	violation	1	0.9250877029262484
538.4817612902261	2.5	B	nonviolation	1	0.986114605795592
541.4817197960801	2.5	A	violation	1	0.9961635121144354
544.4816702273674	2.5	A	nonviolation	1	0.9271563226357102
547.4816400231794	2.5	A	nonviolation	1	0.9671738548204304
550.4815984261222	2.5	A	violation	1	1.075283913873136
553.4815509552136	2.5	B	violation	0	0.9903252199292184
556.4815187440254	2.5	B	nonviolation	0	0.9343667342327536
559.4814754002729	2.5	A	nonviolation	1	1.0884056389331818
562.4814397883601	2.5	A	nonviolation	1	0.972423940896988
565.4813948031515	2.5	A	violation	1	0.9854690860956908
568.4813525322825	2.5	B	nonviolation	0	0.9315366940572858
571.4813142581843	2.5	A	nonviolation	1	0.9725730801001192
574.4812879143283	2.5	B	nonviolation	1	1.2466045999899509
577.4812332950532	2.5	A	nonviolation	1	0.9616484139114618
580.4811799563468	2.5	B	violation	1	1.1297108698636291
583.4811451579444	2.5	A	violation	1	1.031749774236232
586.481103381142	2.5	B	violation	1	1.0767833702266216
