onset	duration	trial_type	subcategory	response_accuracy	response_time
13.508063632063568	0.5	scene	indoor	0	0.8016395810991526
15.008041204884648	0.5	scene	indoor	1	0.7066645040176809
16.508013533893973	0.5	scene	outdoor	1	0.5656876983121037
18.008012405131012	0.5	scene	indoor	1	0.7006844757124782
19.50798323797062	0.5	scene	outdoor	1	0.5326407081447542
21.007974297273904	0.5	scene	outdoor	1	0.9927278365939856
22.507946538273245	0.5	scene	indoor	1	0.6247516735456884
24.00792159186676	0.5	scene	indoor	1	0.7217971761710942
25.50790420686826	0.5	scene	outdoor	1	0.5797932520508766
27.00789117999375	0.5	scene	outdoor	1	0.6198087162338197
43.50766907585785	0.5	object	manmade	1	0.8260401180014014
45.00765069713816	0.5	object	natural	1	0.7600499386899173
46.507629469037056	0.5	object	manmade	1	0.6480746828019619
48.00760738784447	0.5	object	manmade	0	0.5930925393477082
49.507595755159855	0.5	object	natural	1	0.6931115058250725
51.00757344299927	0.5	object	manmade	1	0.928131443914026
52.507559563964605	0.5	object	natural	1	0.7701447149738669
54.00753994798288	0.5	object	manmade	1	0.8261657110415399
55.50751271890476	0.5	object	natural	1	0.6391881941817701
57.00749960495159	0.5	object	natural	1	0.886204392183572
73.50727339787409	0.5	face	female	1	0.5504519841633737
75.0072549181059	0.5	face	female	1	0.4554516589269042
76.50724395411089	0.5	face	male	1	0.3484569499269128
78.0072124991566	0.5	face	female	1	0.4214904000982642
79.5071918880567	0.5	face	female	1	0.5595161081291735
81.00717141618952	0.5	face	female	1	0.5025407010689378
82.50715374713764	0.5	face	male	1	0.4535532668232918
84.00713350484148	0.5	face	male	1	0.5295763411559165
85.50711422599852	0.5	face	male	1	0.47359462594613433
87.00709300395101	0.5	face	male	1	0.4396109660156071
103.50687278714031	0.5	face	male	1	0.4488388509489596
105.00685888109729	0.5	face	male	1	0.47384687373414636
106.50683260103688	0.5	face	female	1	0.562878951895982
108.00682355510071	0.5	face	male	1	0.5068863397464156
109.50680225202814	0.5	face	female	1	0.5208908878266811
111.00677868910134	0.5	face	female	1	0.4149455768056214
112.50675229402259	0.5	face	female	1	0.5149475429207087
114.00673405500129	0.5	face	male	1	0.4829773912206292
115.50671762507409	0.5	face	female	1	0.5569886667653918
117.00669746287167	0.5	face	male	1	0.45101043907925487
133.50647390820086	0.5	object	manmade	1	0.6882408340461552
135.00645103910938	0.5	object	natural	1	0.6412671497091651
136.5064351381734	0.5	object	manmade	1	0.6142769516445696
138.00641248002648	0.5	object	natural	1	0.47430583694949746
139.5063952198252	0.5	object	natural	1	0.6333131501451135
141.0063839731738	0.5	object	manmade	1	0.5963237187825143
142.50635253824294	0.5	object	manmade	1	0.6593577158637345
144.0063361460343	0.5	object	natural	1	0.5193784548901021
145.5063128392212	0.5	object	natural	1	0.6604035277850926
147.00630576908588	0.5	object	manmade	1	0.5523456828668714
163.48940555099398	0.5	face	female	1	0.6173321790993214
164.98937797686085	0.5	face	male	1	0.6003374233841896
166.4893799670972	0.5	face	male	1	0.5323245720937848
168.00601258594543	0.5	face	female	1	0.43570505594834685
169.50600223615766	0.5	face	female	1	0.4887209367007017
170.98929961584508	0.5	face	female	1	0.46841875137761235
172.48927710903808	0.5	face	male	1	0.47743884986266494
173.98925645789132	0.5	face	male	1	0.4484617030248046
175.489233748056	0.5	face	male	1	0.416489542927593
177.0058977631852	0.5	face	female	1	0.48181626899167895
193.48900192184374	0.5	object	manmade	1	0.5477598002180457
194.98898204322904	0.5	object	natural	1	0.49573603086173534
196.48897642781958	0.5	object	manmade	1	0.5587473474442959
197.98895566398278	0.5	object	natural	1	0.4777558562345803
199.48893711483106	0.5	object	manmade	1	0.4937855564057827
200.98891034303233	0.5	object	natural	1	0.834808403160423
202.4888909459114	0.5	object	manmade	1	0.52182607492432
203.98886075615883	0.5	object	natural	1	0.6918643610551953
205.48885177308694	0.5	object	natural	1	0.8418694911524653
206.9888254501857	0.5	object	manmade	1	0.6258961036801338
223.48860633093864	0.5	object	natural	1	0.5791639499366283
224.98858594102785	0.5	object	natural	1	0.49213710287585855
226.48857959918678	0.5	object	natural	1	0.48813989479094744
227.9885470289737	0.5	object	manmade	1	0.4271725229918957
229.48852927004918	0.5	object	manmade	1	0.497196224052459
230.9885072009638	0.5	object	manmade	1	0.5142148011364043
232.48848708393052	0.5	object	manmade	0	0.506239851936698
233.98846853198484	0.5	object	natural	1	0.5682604550383985
235.4884508359246	0.5	object	manmade	1	0.7892755712382495
236.9884255961515	0.5	object	natural	1	0.6233013630844653
253.48820618912578	0.5	face	male	1	0.46852209512144327
254.98819102998823	0.5	face	female	1	0.4915357129648328
256.48816956207156	0.5	face	female	1	0.4415605068206787
257.9881446310319	0.5	face	female	1	0.4985864502377808
259.4881309629418	0.5	face	male	1	0.47659391490742564
260.9881163118407	0.5	face	male	1	0.5216210903599858
262.4880952378735	0.5	face	female	1	0.43463481636717916
263.98807409917936	0.5	face	male	1	0.5366525119170547
265.4880544580519	0.5	face	female	1	0.5526814358308911
266.9880287470296	0.5	face	male	1	0.5506207188591361
283.4878085060045	0.5	scene	indoor	0	0.755927852820605
284.9877938418649	0.5	scene	outdoor	1	0.37893578317016363
286.49238597694784	0.5	scene	outdoor	1	0.7883525821380317
287.98775302199647	0.5	scene	outdoor	1	0.6909760390408337
289.48772754194215	0.5	scene	indoor	1	0.5630019041709602
290.98770715715364	0.5	scene	outdoor	1	0.47402647184208035
292.487684559077	0.5	scene	indoor	1	0.9790475931949914
293.9876747331582	0.5	scene	outdoor	1	0.738063951022923
295.48764788685367	0.5	scene	indoor	1	0.8530872701667249
296.98763252515346	0.5	scene	indoor	1	0.7750978637486696
313.48741149622947	0.5	scene	outdoor	1	0.6273552216589451
314.98739690799266	0.5	scene	indoor	1	0.6063351822085679
316.49132053926587	0.5	scene	outdoor	1	0.4494116227142513
317.98734078696	0.5	scene	indoor	0	0.5983960321173072
319.4873308339156	0.5	scene	indoor	1	0.8114008163101971
320.9873030278832	0.5	scene	indoor	1	0.7904348960146308
322.48728353204206	0.5	scene	indoor	1	0.6874503181315958
323.9872616790235	0.5	scene	outdoor	1	0.5064716641791165
325.48724065022543	0.5	scene	outdoor	1	0.608495804015547
326.9872222468257	0.5	scene	outdoor	1	0.8255152744241059
343.48700346192345	0.5	object	manmade	1	0.5767765380442142
344.98699192889035	0.5	object	manmade	1	0.5267502679489553
346.48970292788	0.5	object	manmade	1	0.6700398921966553
347.9869456230663	0.5	object	natural	1	0.4397984789684415
349.48693406023085	0.5	object	natural	1	0.4748097946867347
350.98691182304174	0.5	object	manmade	1	0.6188344210386276
352.48688475601375	0.5	object	natural	1	0.7338678389787674
353.9868706539273	0.5	object	manmade	1	0.6118688099086285
355.4868413852528	0.5	object	natural	1	0.6138988086022437
356.9868201878853	0.5	object	natural	1	0.5579230361618102
373.4866040162742	0.5	face	male	1	0.4031387339346111
374.9865888720378	0.5	face	male	1	0.43215252785012126
376.48708955710754	0.5	face	male	1	0.45166414603590965
377.98653898900375	0.5	face	female	1	0.4402051861397922
379.4865186121315	0.5	face	female	1	0.44222654588520527
380.98650616407394	0.5	face	male	1	0.5042394460178912
382.48648408520967	0.5	face	female	1	0.43826847104355693
383.9864583639428	0.5	face	female	0	0.4012946020811796
385.48643824784085	0.5	face	female	1	0.5523143042810261
386.9864247171208	0.5	face	male	1	0.579323940910399
403.48619818501174	0.5	scene	outdoor	1	0.6125899888575077
404.9861756619066	0.5	scene	indoor	1	0.5345677179284394
406.4862537481822	0.5	scene	indoor	1	0.7854411699809134
407.98614894226193	0.5	scene	indoor	1	0.6916066547855735
409.4861297849566	0.5	scene	outdoor	1	0.518631137907505
410.98609636491165	0.5	scene	indoor	1	0.757652988191694
412.4860878828913	0.5	scene	outdoor	1	0.7636635163798928
413.98606805689633	0.5	scene	outdoor	1	0.8276808531954885
415.48604293726385	0.5	scene	outdoor	1	0.7667045788839459
416.98601677594706	0.5	scene	indoor	1	0.5317346742376685
433.48579606506974	0.5	scene	indoor	1	0.7889578621834517
434.98578764824197	0.5	scene	outdoor	1	0.5349592329002917
436.485765947029	0.5	scene	outdoor	1	0.5879853102378547
437.9857368101366	0.5	scene	indoor	1	0.5920179509557784
439.4857141850516	0.5	scene	outdoor	1	0.7020508241839707
440.9857007190585	0.5	scene	outdoor	1	0.6090489737689495
442.48567630397156	0.5	scene	indoor	1	0.5160776199772954
443.9856568239629	0.5	scene	indoor	1	0.6150988251902163
445.4856361192651	0.5	scene	indoor	1	0.5921189775690436
446.9856168809347	0.5	scene	outdoor	1	0.7651481302455068
