onset	duration	trial_type	condition	repetition	pairmate	pairID	category	subcategory	response_accuracy	response_time
13.511270180002613	1	postlearning	nonviolation	7	B	50	scene	indoor	1	0.8452590160013642
16.51123132000066	1	postlearning	violation	7	B	37	scene	outdoor	1	0.5943161550021614
19.511192455000128	1	postlearning	nonviolation	7	B	73	scene	indoor	1	0.6433276590032619
22.511153011000715	1	postlearning	nonviolation	7	B	63	scene	outdoor	1	0.5813713919997099
25.51111452400073	1	postlearning	violation	7	B	29	scene	indoor	1	0.6444200520054437
28.511075338006773	1	postlearning	nonviolation	7	B	88	scene	indoor	1	0.5934457799958182
31.51103641000373	1	postlearning	violation	7	B	18	scene	outdoor	1	0.4924013130003004
34.510997435005265	1	postlearning	violation	7	B	42	scene	outdoor	1	0.6525255730011851
37.51095824100047	1	postlearning	nonviolation	7	B	79	scene	indoor	1	0.4625727689999621
40.51091913600249	1	postlearning	violation	7	B	23	scene	outdoor	1	0.4896055869976408
43.51087894000375	1	postlearning	violation	7	B	45	scene	outdoor	1	0.6386695609980961
46.510841566007	1	postlearning	nonviolation	7	B	76	scene	outdoor	1	0.6436892860001535
49.5108013220015	1	postlearning	nonviolation	7	B	83	scene	outdoor	1	0.5672377029986819
52.51076288100012	1	postlearning	nonviolation	7	B	74	scene	outdoor	1	0.7187622280034702
55.51072398300312	1	postlearning	nonviolation	7	B	96	scene	indoor	0	1.0928038190031657
58.51068466400466	1	postlearning	nonviolation	7	B	55	scene	outdoor	1	0.5288443509998615
61.51064428800601	1	postlearning	nonviolation	7	B	71	scene	outdoor	1	1.0059122179955011
64.51060586900712	1	postlearning	violation	7	B	36	scene	indoor	1	0.5339223919945653
67.51056444300048	1	postlearning	nonviolation	7	B	81	scene	indoor	1	1.034968015999766
70.51052764300401	1	postlearning	violation	7	B	34	scene	indoor	1	0.5944977300023311
73.51048766200256	1	postlearning	violation	7	B	9	scene	indoor	1	0.5230467260043952
76.51044718300545	1	postlearning	violation	7	B	24	scene	indoor	1	0.7501183569984278
79.51040788200044	1	postlearning	violation	7	B	7	scene	outdoor	1	0.7571292909997283
82.51036941500206	1	postlearning	violation	7	B	17	scene	indoor	1	0.5531572190011502
85.51032989400119	1	postlearning	violation	7	B	43	scene	indoor	1	0.662201245999313
88.51028957700329	1	postlearning	violation	7	B	14	scene	indoor	1	0.6302404610032681
91.51024869700632	1	postlearning	nonviolation	7	B	90	scene	indoor	1	0.9042772719985804
94.51021065200621	1	postlearning	violation	7	B	48	scene	outdoor	1	0.6443213050006307
97.51017840600252	1	postlearning	nonviolation	7	B	56	scene	outdoor	1	0.7463596930028871
100.5101297940055	1	postlearning	violation	7	B	19	scene	outdoor	1	0.9434015369988628
103.51009061300283	1	postlearning	nonviolation	7	B	75	scene	outdoor	1	0.8614430660018115
106.51005090100081	1	postlearning	nonviolation	7	B	67	scene	indoor	1	0.7044899489992531
109.51001337100023	1	postlearning	violation	7	B	10	scene	outdoor	1	0.624516454001423
112.50997362199995	1	postlearning	violation	7	B	35	scene	outdoor	1	0.9225619070057292
115.50993113000004	1	postlearning	nonviolation	7	B	54	scene	indoor	1	0.7866038990032393
118.5098932270048	1	postlearning	nonviolation	7	B	52	scene	indoor	1	0.8836443530017277
121.49318676600522	1	postlearning	violation	7	B	33	scene	indoor	1	0.869354245995055
124.49314605000109	1	postlearning	nonviolation	7	B	78	scene	outdoor	1	0.562395341003139
127.49310546700144	1	postlearning	nonviolation	7	B	82	scene	indoor	1	0.4794352000026265
130.49306585200247	1	postlearning	nonviolation	7	B	92	scene	outdoor	1	0.4874703620007495
133.49302782600716	1	postlearning	violation	7	B	16	scene	indoor	1	0.7935157129977597
136.49298787900622	1	postlearning	violation	7	B	32	scene	outdoor	1	0.4675554579953314
139.49294968100006	1	postlearning	violation	7	B	11	scene	outdoor	1	0.529587036005978
142.49290686800668	1	postlearning	violation	7	B	41	scene	indoor	1	0.5766281039977912
145.49286680800287	1	postlearning	nonviolation	7	B	49	scene	indoor	1	0.5086279480019584
148.49282687299998	1	postlearning	violation	7	B	44	scene	outdoor	1	0.6247361060013645
151.4927876950023	1	postlearning	violation	7	B	46	scene	indoor	1	0.4827536800003145
154.49274892400715	1	postlearning	nonviolation	7	B	93	scene	indoor	1	0.5037868689978495
157.4927085340023	1	postlearning	violation	7	B	27	scene	outdoor	1	0.5208352780027781
160.49267096100084	1	postlearning	violation	7	B	26	scene	indoor	1	0.5348650550004095
163.49263008100388	1	postlearning	nonviolation	7	B	94	scene	outdoor	1	0.6568864989967551
166.49259135100147	1	postlearning	violation	7	B	15	scene	indoor	1	0.6429552590052481
169.49255124300544	1	postlearning	nonviolation	7	B	62	scene	indoor	1	0.8930027559981681
172.49251366800308	1	postlearning	violation	7	B	4	scene	indoor	0	0.9450445850015968
175.49247471300626	1	postlearning	nonviolation	7	B	53	scene	outdoor	1	0.7260388469949248
178.4924299130071	1	postlearning	nonviolation	7	B	89	scene	outdoor	1	0.6521148439933313
181.49239208800282	1	postlearning	nonviolation	7	B	86	scene	outdoor	1	0.9760848400037504
184.49235042600048	1	postlearning	violation	7	B	22	scene	indoor	1	0.4941916750030941
187.49231199700444	1	postlearning	violation	7	B	40	scene	outdoor	1	0.5502371280017542
190.49227216200237	1	postlearning	violation	7	B	28	scene	indoor	1	0.5292855170046096
193.49223053700558	1	postlearning	violation	7	B	2	scene	indoor	1	0.7812297019991092
196.49218950900104	1	postlearning	violation	7	B	21	scene	indoor	1	0.7583792750010616
199.49215268700212	1	postlearning	violation	7	B	31	scene	outdoor	1	1.0313999089994468
202.4921123580061	1	postlearning	nonviolation	7	B	51	scene	outdoor	1	0.6224310459947446
205.49207240300166	1	postlearning	violation	7	B	3	scene	outdoor	1	0.7444710640047559
208.4920310570014	1	postlearning	nonviolation	7	B	60	scene	indoor	1	0.5535096310049994
211.49199238200526	1	postlearning	nonviolation	7	B	68	scene	outdoor	1	0.7405495229977532
214.4919578130066	1	postlearning	nonviolation	7	B	87	scene	outdoor	1	0.6225984739940031
217.491912592006	1	postlearning	nonviolation	7	B	64	scene	indoor	1	0.5736337429989362
220.49187245600484	1	postlearning	nonviolation	7	B	65	scene	outdoor	1	0.4746814940008335
223.4918322720041	1	postlearning	nonviolation	7	B	58	scene	outdoor	1	0.6487233230000129
226.4917925080008	1	postlearning	violation	7	B	20	scene	outdoor	1	0.6347555750035099
229.49175226700027	1	postlearning	nonviolation	7	B	70	scene	indoor	1	0.6677933680039132
232.4917124420026	1	postlearning	violation	7	B	39	scene	outdoor	1	0.5308294709975598
235.4916707690063	1	postlearning	violation	7	B	12	scene	outdoor	1	0.5528780079985154
238.49163204500653	1	postlearning	violation	7	B	13	scene	outdoor	0	0.5949127639978542
241.4915921370048	1	postlearning	nonviolation	7	B	77	scene	indoor	1	0.9859654609972496
244.49155178100045	1	postlearning	violation	7	B	1	scene	indoor	1	0.577931260006153
247.49151190300472	1	postlearning	violation	7	B	47	scene	indoor	1	0.6750402079997002
250.49147198500577	1	postlearning	violation	7	B	38	scene	indoor	1	0.8340803940009209
253.49143639300016	1	postlearning	nonviolation	7	B	85	scene	outdoor	1	0.5981156930065481
256.4913898490049	1	postlearning	nonviolation	7	B	91	scene	indoor	1	0.8131662460000371
259.4913514530053	1	postlearning	nonviolation	7	B	80	scene	indoor	1	0.7502117059993907
262.49130870000226	1	postlearning	nonviolation	7	B	66	scene	outdoor	1	0.5772429520002333
265.49127143900114	1	postlearning	violation	7	B	30	scene	indoor	1	0.7702763350025634
268.49123122800665	1	postlearning	violation	7	B	5	scene	outdoor	n/a	n/a
271.4911911330055	1	postlearning	nonviolation	7	B	57	scene	outdoor	1	0.6163608849965385
274.4911535830033	1	postlearning	nonviolation	7	B	95	scene	outdoor	1	0.5954037819974474
277.4911107510052	1	postlearning	nonviolation	7	B	84	scene	indoor	1	0.7163926779976464
280.49107025200647	1	postlearning	nonviolation	7	B	69	scene	indoor	1	0.9854885489985464
283.4910305770027	1	postlearning	violation	7	B	6	scene	indoor	1	1.15653236900107
286.4909912430012	1	postlearning	violation	7	B	25	scene	outdoor	1	1.0165666550019523
289.49095060400583	1	postlearning	nonviolation	7	B	72	scene	indoor	1	0.6026235739991535
292.490907763	1	postlearning	nonviolation	7	B	61	scene	outdoor	1	0.8886486040064483
295.490875981006	1	postlearning	nonviolation	7	B	59	scene	indoor	1	0.7416859309960273
298.4908277450013	1	postlearning	violation	7	B	8	scene	outdoor	1	0.4967408990050899
