onset	duration	trial_type	condition	repetition	pairmate	pairID	category	subcategory	response_accuracy	response_time
13.51154541503638	1	postlearning	violation	2	n/a	45	face	female	1	0.4414368141442537
16.511497534345835	1	postlearning	violation	2	n/a	13	face	female	1	0.4754886757582426
19.511462409049273	1	postlearning	violation	2	n/a	39	face	male	1	0.4264664952643216
22.51142742810771	1	postlearning	violation	2	n/a	27	face	male	1	0.5025621401146054
25.511386323254555	1	postlearning	violation	2	n/a	16	face	male	1	0.412593845743686
28.511345515027642	1	postlearning	violation	2	n/a	46	face	female	1	0.4816325600259006
31.51130576524884	1	postlearning	violation	2	n/a	8	face	female	1	0.4296832201071084
34.51126591535285	1	postlearning	violation	2	n/a	25	face	female	1	0.463718390557915
37.511233825236566	1	postlearning	violation	2	n/a	14	face	female	1	0.8137525198981166
40.511185468174524	1	postlearning	violation	2	n/a	38	face	male	1	0.6268020011484623
43.51115224510431	1	postlearning	violation	2	n/a	30	face	male	1	0.465836264193058
46.51111515425146	1	postlearning	violation	2	n/a	22	face	female	1	0.4068751679733396
49.51106242928654	1	postlearning	violation	2	n/a	17	face	female	1	0.4989213668741286
52.51102991821245	1	postlearning	violation	2	n/a	45	face	female	1	0.6949561489745975
55.510984278284006	1	postlearning	violation	2	n/a	35	face	female	1	0.4720059176906943
58.510943591129035	1	postlearning	violation	2	n/a	23	face	male	1	0.4550219848752022
61.51090207695961	1	postlearning	violation	2	n/a	9	face	male	1	0.5590834380127491
64.5108679542318	1	postlearning	violation	2	n/a	4	face	male	1	0.5341187417507172
67.51082309801131	1	postlearning	violation	2	n/a	28	face	male	1	0.4821621300652623
70.5107846292667	1	postlearning	violation	2	n/a	46	face	female	1	0.5831253537908196
73.51074104523286	1	postlearning	violation	2	n/a	44	face	female	1	0.4001637250185013
76.51070446101949	1	postlearning	violation	2	n/a	40	face	female	1	0.6572865089401603
79.51069361809641	1	postlearning	violation	2	n/a	15	face	male	1	0.5813036179170012
82.51063073333353	1	postlearning	violation	2	n/a	2	face	male	1	0.5573760326951742
85.51058747712524	1	postlearning	violation	2	n/a	47	face	male	1	0.5244065830484033
88.51054194523022	1	postlearning	violation	2	n/a	27	face	male	1	0.4904549587517977
91.51050903694704	1	postlearning	violation	2	n/a	25	face	female	1	0.5234157242812216
94.51045459322631	1	postlearning	violation	2	n/a	20	face	male	0	0.4895385918207466
97.51044303132221	1	postlearning	violation	2	n/a	20	face	male	1	0.5155528406612575
100.51039013126864	1	postlearning	violation	2	n/a	12	face	male	1	0.4735987507738173
103.51034618122505	1	postlearning	violation	2	n/a	42	face	male	1	0.4816466248594225
106.51030648918821	1	postlearning	violation	2	n/a	16	face	male	1	0.476687585003674
109.510268189013	1	postlearning	violation	2	n/a	19	face	female	1	0.4447238780558109
112.5102184182033	1	postlearning	violation	2	n/a	10	face	female	1	0.4867839440703392
115.510179575067	1	postlearning	violation	2	n/a	5	face	male	1	0.4338110531680286
118.51013723621143	1	postlearning	violation	2	n/a	37	face	female	1	0.4458676157519221
121.5100968121551	1	postlearning	violation	2	n/a	1	face	male	1	0.4809003858827055
124.49338063132019	1	postlearning	violation	2	n/a	19	face	female	1	0.6236191759817302
127.51002577412875	1	postlearning	violation	2	n/a	44	face	female	1	0.6379060861654581
130.50997615233064	1	postlearning	violation	2	n/a	29	face	male	1	0.4720254517160356
133.50993400625885	1	postlearning	violation	2	n/a	33	face	male	1	0.4700640728697181
136.5098946369253	1	postlearning	violation	2	n/a	26	face	female	1	0.3931071693077683
139.5098555539735	1	postlearning	violation	2	n/a	12	face	male	1	0.5361607181839645
142.4931427189149	1	postlearning	violation	2	n/a	18	face	female	1	0.40384871838614345
145.4930935781449	1	postlearning	violation	2	n/a	42	face	male	1	0.569907046854496
148.49306388199332	1	postlearning	violation	2	n/a	5	face	male	1	0.4449025150388479
151.49301273934543	1	postlearning	violation	2	n/a	41	face	male	1	0.6549687637016177
154.49297435395417	1	postlearning	violation	2	n/a	40	face	female	1	0.4210223611444235
157.4929345739074	1	postlearning	violation	2	n/a	6	face	female	1	0.43806271720677614
160.4928976423107	1	postlearning	violation	2	n/a	8	face	female	1	0.6111069708131254
163.4928580923006	1	postlearning	violation	2	n/a	26	face	female	1	0.5921000950038433
166.49281677417454	1	postlearning	violation	2	n/a	39	face	male	1	0.5261864508502185
169.4927762192674	1	postlearning	violation	2	n/a	48	face	male	1	0.44022776186466217
172.49273423617706	1	postlearning	violation	2	n/a	36	face	female	1	0.4602740937843919
175.4926965991035	1	postlearning	violation	2	n/a	22	face	female	1	0.6863057939335704
178.49265346117318	1	postlearning	violation	2	n/a	35	face	female	1	0.45835933275520796
181.49261700734496	1	postlearning	violation	2	n/a	3	face	female	1	0.5413824417628348
184.492574009113	1	postlearning	violation	2	n/a	23	face	male	1	0.5264289281331003
187.4925324651413	1	postlearning	violation	2	n/a	21	face	male	1	0.4414747450500727
190.49249075027183	1	postlearning	violation	2	n/a	28	face	male	1	0.3994610039517283
193.49245151225483	1	postlearning	violation	2	n/a	9	face	male	1	0.4555541719309986
196.49240853590888	1	postlearning	violation	2	n/a	29	face	male	1	0.4386012651957572
199.49236772395668	1	postlearning	violation	2	n/a	10	face	female	1	0.4626401183195412
202.4923294680193	1	postlearning	violation	2	n/a	14	face	female	1	0.7046833741478622
205.49230074509975	1	postlearning	violation	2	n/a	34	face	male	1	0.4987063850276172
208.4922436471097	1	postlearning	violation	2	n/a	48	face	male	1	0.6627362100407481
211.49220326635987	1	postlearning	violation	2	n/a	34	face	male	1	0.5277784848585725
214.49216304719448	1	postlearning	violation	2	n/a	2	face	male	1	0.42884869687259203
217.49212334491315	1	postlearning	violation	2	n/a	18	face	female	1	0.4488897882401943
220.49208615720272	1	postlearning	violation	2	n/a	4	face	male	1	0.4438588209450245
223.49205166799945	1	postlearning	violation	2	n/a	11	face	female	1	0.3789683999493718
226.4919998953119	1	postlearning	violation	2	n/a	6	face	female	1	0.506019220687449
229.49196295533332	1	postlearning	violation	2	n/a	32	face	female	1	0.5510485968552529
232.4919172800146	1	postlearning	violation	2	n/a	11	face	female	1	0.5430960920639336
235.49189039506015	1	postlearning	violation	2	n/a	38	face	male	1	0.5071223280392587
238.49183511920276	1	postlearning	violation	2	n/a	43	face	female	1	0.5061478130519389
241.49179801298303	1	postlearning	violation	2	n/a	7	face	female	1	0.5872152969241142
244.49175752419976	1	postlearning	violation	2	n/a	36	face	female	1	0.5342180631123483
247.4917173180729	1	postlearning	violation	2	n/a	3	face	female	1	0.5922122769989073
250.4916762979701	1	postlearning	violation	2	n/a	31	face	female	1	0.591300992295146
253.49163417192176	1	postlearning	violation	2	n/a	17	face	female	1	0.4743825872428715
256.4916035430506	1	postlearning	violation	2	n/a	7	face	female	1	0.4834137191064656
259.49155955715105	1	postlearning	violation	2	n/a	24	face	male	1	0.568450734950602
262.49150991020724	1	postlearning	violation	2	n/a	37	face	female	1	0.6795074311085045
265.4915031879209	1	postlearning	violation	2	n/a	31	face	female	1	0.4964391812682152
268.4914481001906	1	postlearning	violation	2	n/a	24	face	male	1	0.5335717429406941
271.49139196891343	1	postlearning	violation	2	n/a	47	face	male	1	0.5016188030131161
274.4913494000212	1	postlearning	violation	2	n/a	41	face	male	1	0.5816708812490106
277.4913122863509	1	postlearning	violation	2	n/a	43	face	female	1	0.7557058059610426
280.49127200013027	1	postlearning	violation	2	n/a	1	face	male	1	0.516747638117522
283.49124545324594	1	postlearning	violation	2	n/a	30	face	male	1	0.4417719529010356
286.4911877959967	1	postlearning	violation	2	n/a	21	face	male	1	0.5308333970606327
289.49114640010515	1	postlearning	violation	2	n/a	13	face	female	0	1.0807948019355536
292.4911066121422	1	postlearning	violation	2	n/a	32	face	female	1	0.7119155549444258
295.4910730561241	1	postlearning	violation	2	n/a	33	face	male	1	0.4509490220807493
298.4910354809836	1	postlearning	violation	2	n/a	15	face	male	1	0.5799373839981854
