onset	duration	trial_type	condition	repetition	pairmate	pairID	category	subcategory	response_accuracy	response_time
13.503253374714403	1	prelearning	violation	1	A	17	scene	outdoor	1	0.42258523497730494
16.503217133693393	1	prelearning	violation	1	B	24	scene	indoor	1	0.3776182131841779
19.503176200669262	1	prelearning	nonviolation	1	A	72	scene	indoor	1	0.4256664742715657
22.503138154745105	1	prelearning	violation	1	A	24	scene	indoor	1	0.4326940719038248
25.503098653629426	1	prelearning	nonviolation	1	B	68	scene	outdoor	1	0.3567402041517198
28.503059575799853	1	prelearning	nonviolation	1	A	65	scene	indoor	1	0.4637701651081443
31.503020459786054	1	prelearning	nonviolation	1	A	71	scene	outdoor	1	0.6028163670562208
34.502983501646675	1	prelearning	violation	1	A	19	scene	outdoor	1	0.5858452273532748
37.50294920289889	1	prelearning	violation	1	B	21	scene	outdoor	1	0.4277686350978911
40.50290661863983	1	prelearning	violation	1	A	18	scene	indoor	1	0.4819274842739105
43.50287719676272	1	prelearning	nonviolation	1	B	72	scene	outdoor	1	0.5059598558582366
46.502824735827744	1	prelearning	violation	1	B	18	scene	outdoor	1	0.5490176971070468
49.50279634865001	1	prelearning	violation	1	B	17	scene	indoor	1	0.5980407642200589
52.502744899597026	1	prelearning	violation	1	B	20	scene	indoor	1	1.031091806013137
55.50270456401631	1	prelearning	violation	1	B	22	scene	outdoor	1	0.5351327988319099
58.502674465999014	1	prelearning	nonviolation	1	B	66	scene	indoor	1	0.5521658258512616
61.50262611964718	1	prelearning	nonviolation	1	A	68	scene	outdoor	1	0.5002138093113899
64.50258703390136	1	prelearning	nonviolation	1	B	71	scene	indoor	1	0.512254327069968
67.50254734884948	1	prelearning	nonviolation	1	B	70	scene	indoor	1	0.4782910291105509
70.50250632874669	1	prelearning	violation	1	A	21	scene	indoor	1	0.5323373791761696
73.50247110798955	1	prelearning	nonviolation	1	A	67	scene	outdoor	1	0.5053751380182803
76.50242949277163	1	prelearning	violation	1	B	19	scene	indoor	1	0.4554103701375425
79.50238992366941	1	prelearning	nonviolation	1	A	70	scene	indoor	1	0.6444564913399518
82.5023630335927	1	prelearning	nonviolation	1	A	69	scene	indoor	1	0.534480516333133
85.50231176288798	1	prelearning	violation	1	A	23	scene	outdoor	1	0.6115323267877102
88.50227257888763	1	prelearning	violation	1	A	20	scene	indoor	1	0.5295740966685116
91.50223309965806	1	prelearning	nonviolation	1	B	65	scene	indoor	1	0.6136156641878188
94.50219473568724	1	prelearning	violation	1	B	23	scene	outdoor	1	0.7586467680521309
97.50216306187212	1	prelearning	violation	1	A	22	scene	outdoor	1	0.5966822309419513
100.50212220195681	1	prelearning	nonviolation	1	A	66	scene	outdoor	1	0.8487198217771947
103.50207565678284	1	prelearning	nonviolation	1	B	69	scene	outdoor	1	0.6907708710059524
106.50203643599524	1	prelearning	nonviolation	1	B	67	scene	outdoor	1	0.9418069357052444
109.5019963509403	1	learning	violation	2	A	17	scene	outdoor	1	0.987872420810163
112.50195659557356	1	learning	violation	2	B	17	scene	indoor	1	0.6098928903229535
115.50191909167916	1	learning	violation	2	A	18	scene	indoor	1	0.5039248690009117
118.50188754172994	1	learning	violation	2	B	18	scene	outdoor	1	0.6219602948985994
121.50183779979125	1	learning	nonviolation	2	A	65	scene	indoor	1	0.5530053172260523
124.50181650556624	1	learning	nonviolation	2	B	65	scene	indoor	1	0.5920346891507506
127.50175783177838	1	learning	nonviolation	2	A	66	scene	outdoor	1	0.6930888779461384
130.50172550277784	1	learning	nonviolation	2	B	66	scene	indoor	1	0.6011140150949359
133.5016782595776	1	learning	nonviolation	2	A	67	scene	outdoor	1	0.5271725421771407
136.50163839384913	1	learning	nonviolation	2	B	67	scene	outdoor	1	0.5322158737108111
139.5015980377793	1	learning	violation	2	A	19	scene	outdoor	1	0.491250567138195
142.50157209299502	1	learning	violation	2	B	19	scene	indoor	1	0.5802755896002054
145.5015264856629	1	learning	violation	2	A	20	scene	indoor	1	0.3823182671330869
148.50147968297824	1	learning	violation	2	B	20	scene	indoor	1	0.5413692439906299
151.50144067779183	1	learning	nonviolation	2	A	68	scene	outdoor	1	0.5124139981344342
154.5013974038884	1	learning	nonviolation	2	B	68	scene	outdoor	1	0.4774544350802898
157.5013618678786	1	learning	violation	2	A	21	scene	indoor	1	0.5394924688152969
160.5013274606317	1	learning	violation	2	B	21	scene	outdoor	1	0.5235211639665067
163.50129064591601	1	learning	nonviolation	2	A	69	scene	indoor	1	0.643566238693893
166.50124072562903	1	learning	nonviolation	2	B	69	scene	outdoor	1	0.6134907393716276
169.50119975069538	1	learning	nonviolation	3	A	66	scene	outdoor	1	0.6796539588831365
172.50116039393467	1	learning	nonviolation	3	B	66	scene	indoor	1	0.5756973400712013
175.50113163888454	1	learning	violation	3	A	18	scene	indoor	1	0.5936651779338717
178.5010900776833	1	learning	violation	3	B	18	scene	outdoor	1	0.6287643471732736
181.50104303983971	1	learning	violation	3	A	21	scene	indoor	1	0.5798119059763849
184.50100376596677	1	learning	violation	3	B	21	scene	outdoor	1	0.5608550310134888
187.50096706859767	1	learning	nonviolation	4	A	66	scene	outdoor	1	0.525891822297126
190.50092187291008	1	learning	nonviolation	4	B	66	scene	indoor	0	0.797904240898788
193.50088207796216	1	learning	violation	2	A	22	scene	outdoor	1	0.8138557909987867
196.50083927996457	1	learning	violation	2	B	22	scene	outdoor	1	0.7430190127342939
199.50080729275945	1	learning	nonviolation	3	A	65	scene	indoor	1	0.6790509079582989
202.50075879087674	1	learning	nonviolation	3	B	65	scene	indoor	1	0.44109709188342094
205.50072885071862	1	learning	violation	2	A	23	scene	outdoor	1	0.7071281261742115
208.5006908145733	1	learning	violation	2	B	23	scene	outdoor	1	0.6051655691117048
211.5006413757801	1	learning	violation	3	A	19	scene	outdoor	1	0.72321622306481
214.50060145556927	1	learning	violation	3	B	19	scene	indoor	1	0.8282577800564468
217.5005616629496	1	learning	violation	3	A	17	scene	outdoor	1	0.5733003658242524
220.5005305227824	1	learning	violation	3	B	17	scene	indoor	1	0.6393309868872166
223.50048864167184	1	restudy	nonviolation	5	B	66	scene	indoor	1	0.4753693901002407
226.50044237868858	1	learning	violation	4	A	18	scene	indoor	1	0.484349723905325
229.50039981678128	1	learning	violation	4	B	18	scene	outdoor	1	0.487458529882133
232.50037454580888	1	learning	nonviolation	3	A	67	scene	outdoor	1	0.5214835279621184
235.50033110193908	1	learning	nonviolation	3	B	67	scene	outdoor	1	0.4535266668535769
238.50028005056083	1	learning	violation	3	A	23	scene	outdoor	1	0.4766016840003431
241.50024475762618	1	learning	violation	3	B	23	scene	outdoor	1	0.6196151650510728
244.50020245555785	1	learning	violation	3	A	20	scene	indoor	1	0.5456576622091234
247.5001675635576	1	learning	violation	3	B	20	scene	indoor	1	0.465698448009789
250.50012152595448	1	learning	violation	4	A	21	scene	indoor	1	0.4827432599849999
253.50008039968085	1	learning	violation	4	B	21	scene	outdoor	1	0.59878288814798
256.50003600073984	1	learning	nonviolation	3	A	69	scene	indoor	1	0.7938330732285976
259.4999983208254	1	learning	nonviolation	3	B	69	scene	outdoor	1	0.5888482457958162
262.49996007280424	1	violation	violation	5	A	18	scene	indoor	1	0.5309041431173682
265.4999187239446	1	violation	violation	1	X	18	face	male	1	0.6919558527879417
268.4998832829297	1	learning	nonviolation	4	A	65	scene	indoor	1	0.5039870748296379
271.499840953853	1	learning	nonviolation	4	B	65	scene	indoor	1	0.5620224098674953
274.4998063687235	1	learning	nonviolation	3	A	68	scene	outdoor	1	0.5660632122308016
277.49975766660646	1	learning	nonviolation	3	B	68	scene	outdoor	1	0.5291078733280301
280.4997274358757	1	learning	violation	4	A	19	scene	outdoor	1	0.4791375328786671
283.49969008984044	1	learning	violation	4	B	19	scene	indoor	1	0.5841768118552864
286.49963687360287	1	learning	violation	4	A	20	scene	indoor	1	0.4502300261519849
289.49960077274585	1	learning	violation	4	B	20	scene	indoor	1	0.4552638470195234
292.49955980991945	1	restudy	violation	5	B	18	scene	outdoor	1	0.5603110170923173
295.4995194235817	1	learning	violation	4	A	23	scene	outdoor	1	0.5553497783839703
298.49947727285326	1	learning	violation	4	B	23	scene	outdoor	1	0.5463908747769892
301.49944685865194	1	learning	violation	3	A	22	scene	outdoor	1	0.4254224351607263
304.4993996908888	1	learning	violation	3	B	22	scene	outdoor	1	0.480470241047442
307.49936002399767	1	learning	nonviolation	4	A	67	scene	outdoor	1	0.4755107178352773
310.49932312080637	1	learning	nonviolation	4	B	67	scene	outdoor	1	0.5065492889843881
313.499277678784	1	violation	violation	5	A	21	scene	indoor	1	0.3945948700420559
316.49924632301554	1	violation	violation	1	X	21	face	male	1	0.4676236398518086
319.49919645302003	1	learning	nonviolation	4	A	68	scene	outdoor	1	0.6106757298111916
322.4991575349123	1	learning	nonviolation	4	B	68	scene	outdoor	1	0.3997148778289557
325.49911681283265	1	violation	violation	6	A	18	scene	indoor	1	0.5197594100609422
328.4990735747852	1	violation	violation	1	Y	18	face	male	1	0.516801442950964
331.4990362878889	1	restudy	nonviolation	6	B	66	scene	indoor	1	0.5808385410346091
334.4990057009272	1	learning	violation	4	A	17	scene	outdoor	1	0.791874079965055
337.49896560562775	1	learning	violation	4	B	17	scene	indoor	1	0.5559031222946942
340.49892716901377	1	restudy	nonviolation	5	B	65	scene	indoor	1	0.8379508559592068
343.4988818359561	1	learning	violation	4	A	22	scene	outdoor	1	0.5619979086332023
346.49883285770187	1	learning	violation	4	B	22	scene	outdoor	1	0.5000436129048467
349.4987925710157	1	violation	violation	5	A	19	scene	outdoor	1	0.4319607666693628
352.4987536687404	1	violation	violation	1	X	19	face	female	1	0.5051273261196911
355.49874377390364	1	violation	violation	5	A	20	scene	indoor	1	0.5641356948763132
358.49867378594354	1	violation	violation	1	X	20	face	female	0	0.7192077268846333
361.48195389285684	1	learning	nonviolation	2	A	70	scene	indoor	1	0.7559222648851573
364.48191185155883	1	learning	nonviolation	2	B	70	scene	indoor	1	0.5459636393934488
367.4818766368553	1	restudy	nonviolation	5	B	68	scene	outdoor	1	0.5280014150775969
370.48183494573465	1	learning	nonviolation	4	A	69	scene	indoor	1	0.9090411900542676
373.48179589491343	1	learning	nonviolation	4	B	69	scene	outdoor	1	0.5610800879076123
376.48176272772247	1	learning	violation	2	A	24	scene	indoor	1	0.6141190999187529
379.4817322236486	1	learning	violation	2	B	24	scene	indoor	1	0.4970262879505754
382.48168262699613	1	violation	violation	5	A	17	scene	outdoor	1	0.6891979458741844
385.48164032073686	1	violation	violation	1	X	17	face	female	1	0.6152447918429971
388.4816069370136	1	restudy	violation	5	B	20	scene	indoor	1	0.4812787999399006
391.481565439608	1	restudy	violation	5	B	21	scene	outdoor	1	0.5053152684122324
394.48151954496285	1	violation	violation	5	A	23	scene	outdoor	1	0.5853605950251222
397.48148347157996	1	violation	violation	1	X	23	face	male	1	0.8533973940648139
400.48145250370726	1	restudy	violation	5	B	19	scene	indoor	1	0.5244260821491479
403.4814041727223	1	restudy	nonviolation	6	B	68	scene	outdoor	1	0.5225164722651243
406.4813773278147	1	restudy	nonviolation	5	B	67	scene	outdoor	1	0.5035051140002906
409.48131762770936	1	learning	nonviolation	2	A	71	scene	outdoor	1	0.6585690951906145
412.48128627194086	1	learning	nonviolation	2	B	71	scene	indoor	1	0.4975464697927237
415.48123577469966	1	restudy	violation	6	B	18	scene	outdoor	1	0.5206467350944877
418.48121336055914	1	restudy	violation	5	B	17	scene	indoor	1	0.7846726751886308
421.48116387659684	1	learning	violation	3	A	24	scene	indoor	1	0.578719865065068
424.481123788748	1	learning	violation	3	B	24	scene	indoor	1	0.8416361310519278
427.4810837507248	1	violation	violation	5	A	22	scene	outdoor	1	0.6088020759634674
430.4810463115573	1	violation	violation	1	X	22	face	male	1	0.6538397213444114
433.4810025650077	1	learning	nonviolation	2	A	72	scene	indoor	1	0.5358869079500437
436.4809708748944	1	learning	nonviolation	2	B	72	scene	outdoor	1	0.4539167420007289
439.48091897461563	1	restudy	nonviolation	6	B	65	scene	indoor	1	0.6939692320302129
442.48089146101853	1	learning	nonviolation	3	A	70	scene	indoor	1	0.6290068496018648
445.48084567068156	1	learning	nonviolation	3	B	70	scene	indoor	1	0.6510436222888529
448.48080022679636	1	violation	violation	6	A	19	scene	outdoor	1	0.5810866160318255
451.4807596397586	1	violation	violation	1	Y	19	face	female	1	0.4571290668100119
454.48076227074483	1	restudy	nonviolation	6	B	67	scene	outdoor	1	1.0251272991299631
457.4806787068956	1	restudy	nonviolation	5	B	69	scene	outdoor	1	0.7492223479785025
460.4806439816021	1	learning	violation	4	A	24	scene	indoor	1	0.5462468052282929
463.48059624666354	1	learning	violation	4	B	24	scene	indoor	1	0.4182950779795647
466.4805711358785	1	violation	violation	6	A	21	scene	indoor	1	0.4843173171393573
469.48051846167067	1	violation	violation	1	Y	21	face	male	1	0.6803730051033199
472.4804740729742	1	violation	violation	6	A	20	scene	indoor	1	0.497413591016084
475.4804351315834	1	violation	violation	1	Y	20	face	female	1	0.5224572052247822
478.48039828659967	1	restudy	violation	5	B	23	scene	outdoor	1	0.5274905213154852
481.4803679888137	1	violation	violation	6	A	17	scene	outdoor	1	0.662519842851907
484.4803243139759	1	violation	violation	1	Y	17	face	female	1	0.6955690057948232
487.4802839248441	1	restudy	nonviolation	6	B	69	scene	outdoor	1	0.7056116168387234
490.4802315807901	1	restudy	violation	5	B	22	scene	outdoor	1	0.7116613881662488
493.4802044876851	1	restudy	violation	6	B	17	scene	indoor	1	0.5465739551000297
496.4801652766764	1	learning	nonviolation	3	A	72	scene	indoor	1	0.44173717498779297
499.48011604882777	1	learning	nonviolation	3	B	72	scene	outdoor	1	0.5306638241745532
502.48007532395417	1	learning	nonviolation	3	A	71	scene	outdoor	1	0.5028157676570117
505.48003240581596	1	learning	nonviolation	3	B	71	scene	indoor	1	0.4827161380089819
508.4799961699173	1	restudy	violation	6	B	19	scene	indoor	1	0.4359027557075024
511.47996000200516	1	learning	nonviolation	4	A	70	scene	indoor	1	0.6099421498365699
514.4799192068167	1	learning	nonviolation	4	B	70	scene	indoor	1	0.5249754027463496
517.4798912038095	1	restudy	violation	6	B	21	scene	outdoor	1	0.4520073658786714
520.4798325216398	1	violation	violation	5	A	24	scene	indoor	1	0.6920678652822971
523.479792393744	1	violation	violation	1	X	24	face	female	1	0.6241054008714855
526.4797558519058	1	violation	violation	6	A	23	scene	outdoor	1	0.5211347448639572
529.4797120569274	1	violation	violation	1	Y	23	face	male	1	0.9801906649954616
532.4796811989509	1	learning	nonviolation	4	A	71	scene	outdoor	1	0.4702178817242384
535.4796286877246	1	learning	nonviolation	4	B	71	scene	indoor	1	0.796277710236609
538.4795895270072	1	restudy	violation	6	B	20	scene	indoor	1	0.5283102449029684
541.479549924843	1	restudy	violation	5	B	24	scene	indoor	1	0.8513481360860169
544.4795214929618	1	learning	nonviolation	4	A	72	scene	indoor	1	0.4683830607682466
547.4794778386131	1	learning	nonviolation	4	B	72	scene	outdoor	1	0.5704276133328676
550.479430723004	1	restudy	nonviolation	5	B	71	scene	indoor	1	0.5254717585630715
553.4793896395713	1	restudy	nonviolation	5	B	70	scene	indoor	1	0.6225107894279063
556.4793542157859	1	restudy	violation	6	B	23	scene	outdoor	1	0.8095529461279511
559.4793081749231	1	restudy	nonviolation	5	B	72	scene	outdoor	1	0.5266052810475229
562.4792672949843	1	violation	violation	6	A	24	scene	indoor	1	0.4956393046304584
565.479229093995	1	violation	violation	1	Y	24	face	female	1	0.5376715096645057
568.4792031669058	1	restudy	nonviolation	6	B	70	scene	indoor	1	0.4057002170011401
571.4791463539003	1	violation	violation	6	A	22	scene	outdoor	1	0.5267539210617542
574.4791058446282	1	violation	violation	1	Y	22	face	male	1	0.446861473377794
577.4790789466351	1	restudy	nonviolation	6	B	72	scene	outdoor	1	0.5178246530704199
580.4790258486755	1	restudy	nonviolation	6	B	71	scene	indoor	1	0.5478834169916809
583.4789992696607	1	restudy	violation	6	B	24	scene	indoor	1	0.5559060689993203
586.4789457959123	1	restudy	violation	6	B	22	scene	outdoor	1	0.4909617300145328
