onset	duration	trial_type	condition	response_accuracy	response_time
13.508563089999369	2.5	A	nonviolation	1	1.1823129609692842
16.506558438006326	2.5	A	violation	1	1.0793205869849771
19.506518552952908	2.5	B	nonviolation	0	0.9323595120222308
22.50647576298797	2.5	A	violation	1	0.7864053290104493
25.50643982499605	2.5	A	nonviolation	1	0.9344394169747828
28.506398869969416	2.5	A	nonviolation	1	0.8814809999894351
31.506368615955576	2.5	B	nonviolation	1	0.8665118790231645
34.506325078953516	2.5	A	violation	1	0.9825591560220346
37.50627527397592	2.5	B	nonviolation	1	0.9086119449930266
40.506245120952364	2.5	A	nonviolation	1	0.7896336500416509
43.50619709998136	2.5	A	nonviolation	1	0.7376823499798775
46.50615514500532	2.5	A	violation	1	0.9727310139569454
49.506128830951646	2.5	B	violation	1	0.6957209250540473
52.50608468597056	2.5	B	nonviolation	1	0.7497988780378364
55.50603391096229	2.5	A	nonviolation	1	0.7568512980360538
58.505994439008646	2.5	A	violation	1	0.7958734399871901
61.50595727795736	2.5	A	nonviolation	1	0.8219249010435306
64.50592895195587	2.5	B	nonviolation	0	0.8679551540408283
67.50588271400193	2.5	B	violation	0	1.0270006689825095
70.50584644195624	2.5	B	nonviolation	1	1.210039517027326
73.50579702795947	2.5	B	nonviolation	0	0.978086744027678
76.50575443397975	2.5	A	violation	1	0.8551293439813891
79.50572432798799	2.5	B	violation	0	1.1321646419819444
82.50567622500239	2.5	A	violation	1	0.8302109770011157
85.50563356798375	2.5	B	violation	1	0.889255198999308
88.50559414399322	2.5	A	nonviolation	1	0.8382945680059493
91.50554677000036	2.5	A	nonviolation	1	0.7883561839698814
94.50551608600655	2.5	B	nonviolation	0	0.880370442988351
97.5054720469634	2.5	B	violation	1	1.0914182320120744
100.505426417978	2.5	A	nonviolation	1	0.76846127997851
103.5053907709662	2.5	A	violation	1	0.7025043060421012
106.50534707598854	2.5	A	violation	1	0.6295238129678182
109.5053154489724	2.5	A	violation	1	0.8145749960094691
112.50526570895454	2.5	B	nonviolation	1	0.7656229640124366
115.50522384699434	2.5	B	nonviolation	0	0.8536676199873909
118.50519192899809	2.5	A	nonviolation	1	0.7706956620095298
121.50513970595784	2.5	B	violation	0	0.9027542890398764
124.50510430696886	2.5	B	violation	0	0.9397857520380056
127.50506032898556	2.5	B	violation	1	0.9858336219913326
130.50502294197213	2.5	B	violation	0	1.0568938300129955
133.5049763279967	2.5	A	nonviolation	1	0.8799204239621758
136.5049379519769	2.5	B	nonviolation	0	1.1188888360047713
139.50490052299574	2.5	A	violation	1	0.7889955079881474
142.5048556569964	2.5	B	violation	0	0.9460386849823408
145.504817301	2.5	B	nonviolation	0	1.2310738819651306
148.5047841029591	2.5	B	violation	1	1.2811344990041107
151.50473224499729	2.5	B	violation	1	1.3501605140045283
154.5046888589859	2.5	A	violation	1	0.7862109090201557
157.5046520739561	2.5	B	violation	0	1.3592480859952047
160.50461306795478	2.5	B	violation	0	0.92528530000709
163.5045809999574	2.5	B	violation	1	1.0033137510181405
166.5045307569671	2.5	A	nonviolation	1	0.6333660579985008
169.50449468096485	2.5	A	violation	1	0.7103215969982557
172.504447958956	2.5	A	violation	1	0.9554480710066856
175.50440423196412	2.5	A	nonviolation	1	0.7094935060013086
178.5043608599808	2.5	A	nonviolation	1	0.7875336679862812
181.5043287469889	2.5	A	violation	1	0.8875709869898856
184.5042785489932	2.5	A	violation	1	0.7236261629732326
187.50424958299843	2.5	A	violation	1	0.6826500869938172
190.50419483799487	2.5	B	violation	0	0.8047106249723583
193.5041663569864	2.5	A	nonviolation	1	0.6997342999675311
196.504124241008	2.5	A	violation	1	0.7547730359947309
199.50408157898343	2.5	A	nonviolation	1	0.7018230499816127
202.50404219498157	2.5	A	nonviolation	1	0.5398568200180307
205.50400196400003	2.5	A	violation	1	0.7109000000054948
208.5039474449586	2.5	B	nonviolation	0	0.8129536579945125
211.50391139899148	2.5	B	nonviolation	1	0.9659952099900692
214.50386644597165	2.5	B	nonviolation	0	0.8140417779795825
217.50382462696868	2.5	B	nonviolation	0	0.9720785350073128
220.50379339500802	2.5	B	violation	0	1.1961085189832374
223.50374915398427	2.5	A	violation	1	0.6661716509843245
226.5037090459955	2.5	A	violation	1	0.7151977900066413
229.50366195297104	2.5	B	nonviolation	1	1.1942422990105117
232.50361733400499	2.5	B	nonviolation	1	0.958285161992535
235.50358351395698	2.5	B	violation	0	1.2253241260186771
238.50353256100792	2.5	B	violation	0	1.0743730349931866
241.50349621399076	2.5	A	nonviolation	1	0.907407175982371
244.5034573839512	2.5	A	nonviolation	1	0.6374508520239033
247.5034088899847	2.5	B	nonviolation	1	0.7794999119942077
250.50337215297625	2.5	A	nonviolation	1	0.7705401540151797
253.50333017500816	2.5	B	violation	1	0.7245795369963162
256.5032955209608	2.5	B	nonviolation	0	1.082634082005825
259.5032469359576	2.5	A	nonviolation	1	0.9816607609973288
262.5032020439976	2.5	A	violation	1	0.7117122159688734
265.50316931400454	2.5	B	violation	1	0.8087364609818906
268.5031167239649	2.5	B	violation	0	0.9237965579959564
271.5030766959535	2.5	B	violation	1	1.001835650007706
274.50303986098146	2.5	B	nonviolation	1	1.1878721640096046
277.5029939079541	2.5	A	violation	1	0.966915893019177
280.5029568849713	2.5	B	nonviolation	1	0.742953167995438
283.50292091799196	2.5	A	nonviolation	1	1.1819939449778758
286.4862038950086	2.5	A	violation	1	0.7717323889955878
289.48615633399464	2.5	B	nonviolation	0	0.8156894959975034
292.48611777398037	2.5	B	nonviolation	1	1.130798665981274
295.4860670049675	2.5	B	violation	0	1.094845229992643
298.48602509096963	2.5	A	nonviolation	1	0.8828919639927335
301.48598702298483	2.5	A	violation	1	0.6839535670005716
304.48595148400636	2.5	A	violation	1	0.8879701599944383
307.48590921796864	2.5	A	nonviolation	1	0.7310046899947338
310.485867195006	2.5	B	violation	0	1.0260520029696636
313.48582726996386	2.5	A	violation	1	0.7620897990418598
316.4857877849717	2.5	A	nonviolation	1	0.8161297410260886
319.4857417999883	2.5	B	nonviolation	0	1.0701744219986722
322.4857004989753	2.5	A	violation	1	0.6022226990316994
325.4856559569598	2.5	B	nonviolation	1	0.9112589720170944
328.4856185579556	2.5	A	violation	1	0.8532997610163875
331.4855792419985	2.5	A	violation	1	0.7073411219753325
334.48553566995537	2.5	B	violation	0	0.9663844560272992
337.48548985295935	2.5	A	nonviolation	1	0.6074317110469565
340.4854499469511	2.5	A	nonviolation	1	0.7794709990266709
343.4854166059522	2.5	B	violation	0	0.8545043960330077
346.48536949499976	2.5	A	nonviolation	1	0.6995534650050104
349.4853242639801	2.5	A	nonviolation	1	0.7395934980013408
352.48528457997594	2.5	B	nonviolation	1	0.7816354120150208
355.4852552780066	2.5	B	nonviolation	0	0.6995875259744935
358.48520672897575	2.5	A	violation	1	0.7477186290198006
361.48517056799034	2.5	B	nonviolation	0	1.0147487329668363
364.48512187600136	2.5	A	nonviolation	1	0.6168014569557272
367.4850901389728	2.5	B	violation	0	0.9598343999823556
370.4850366419996	2.5	B	nonviolation	0	1.4278876389726065
373.4849924809532	2.5	A	violation	1	0.7069354140548967
376.48496374400565	2.5	B	violation	0	0.8549654709640891
379.4849233549903	2.5	A	nonviolation	1	0.8039984019706026
382.48487268295133	2.5	B	violation	1	0.9110524690477178
385.48483759199735	2.5	B	violation	0	0.8120895939646289
388.4847995789605	2.5	A	nonviolation	1	0.7051283960463479
391.4847439949517	2.5	A	violation	1	0.6811818240093999
394.4847176760086	2.5	B	nonviolation	1	1.0162071979721077
397.4846594849951	2.5	A	nonviolation	1	0.822268872987479
400.4846222689957	2.5	B	nonviolation	1	0.8523080919985659
403.4845779209864	2.5	A	nonviolation	1	0.6443522109766491
406.4845408499823	2.5	B	nonviolation	1	1.0433923680102453
409.4844958499889	2.5	A	violation	1	0.9304312120075338
412.48445446096594	2.5	B	violation	1	1.1024758450221268
415.48442322498886	2.5	B	violation	0	1.1285036029876208
418.48437272798037	2.5	A	violation	1	0.8845590800046921
421.48432669497566	2.5	B	violation	0	0.9786033229902388
424.48429016297445	2.5	B	nonviolation	1	1.3696408289833926
427.4842434559832	2.5	B	nonviolation	0	1.1426953300251623
430.484203843982	2.5	B	violation	0	0.9147273320122622
433.484163051995	2.5	B	violation	0	0.974770701956004
436.4841284569702	2.5	B	nonviolation	1	0.993801523989532
439.48408052697783	2.5	A	nonviolation	1	1.0458510189782828
442.4840432080091	2.5	A	violation	1	1.0368955379817637
445.48400163400214	2.5	B	nonviolation	0	1.3529320359812118
448.483955136966	2.5	B	nonviolation	1	0.9389793309965172
451.4839090239839	2.5	B	violation	1	1.219023877987638
454.4838814699906	2.5	A	violation	1	0.6530520759988576
457.4838249399908	2.5	B	violation	0	1.0011123460135425
460.48379524296615	2.5	A	violation	1	0.7051429770071991
463.48374678898836	2.5	A	violation	1	0.8071862689685076
466.48369928699685	2.5	B	violation	1	0.8872417350066826
469.4836658309796	2.5	A	nonviolation	1	0.8232732230098918
472.48361809895135	2.5	A	nonviolation	1	0.6743171790149063
475.48357984196633	2.5	A	violation	1	0.6423527449951507
478.483543876966	2.5	B	violation	0	1.0533872520318257
481.48350335500436	2.5	A	nonviolation	1	0.6154329479904845
484.4834553399705	2.5	A	violation	1	0.7204824120271951
487.4834071439691	2.5	B	nonviolation	1	1.0495371849974615
490.4833674769616	2.5	A	nonviolation	1	0.9075697890366428
493.4833255370031	2.5	A	nonviolation	1	0.8216218029847369
496.48329200199805	2.5	A	nonviolation	1	0.6706475379760377
499.483252111997	2.5	B	violation	1	0.8876859939773567
502.4832044979557	2.5	A	nonviolation	1	0.7237398260040209
505.48316213395447	2.5	B	nonviolation	0	0.7988052070140839
508.4831169499666	2.5	B	violation	0	0.8618262450327165
511.4830788499676	2.5	A	nonviolation	1	0.7908896380104125
514.4830366309616	2.5	B	nonviolation	0	0.9909029030241072
517.4830026359996	2.5	B	violation	0	1.1519351239548996
520.4829909389955	2.5	A	nonviolation	1	0.8969505699933507
523.4829188229634	2.5	A	nonviolation	1	0.8110212130122818
526.4828685239772	2.5	A	nonviolation	1	0.8660788030247204
529.4828324159607	2.5	B	nonviolation	1	0.8691138040157966
532.4827866709675	2.5	B	violation	1	0.9851545440033078
535.4827391319559	2.5	B	nonviolation	1	1.1372050649952143
538.4827045069542	2.5	B	violation	0	1.114238157053478
541.4826648099697	2.5	A	violation	1	0.931279601994902
544.4826188929728	2.5	A	violation	1	0.8523254250176251
547.4825727319694	2.5	B	violation	0	0.9083711850107647
550.4825299239601	2.5	B	violation	1	1.1234184330096468
553.4824882099639	2.5	B	nonviolation	1	1.125458915019408
556.4824574819651	2.5	A	violation	1	0.7524908389896154
559.4824087799643	2.5	A	nonviolation	1	0.7435367440339178
562.4823632229818	2.5	B	nonviolation	1	0.9565838020062074
565.4823245590087	2.5	B	nonviolation	0	0.8216260059853084
568.4822842399591	2.5	A	violation	0	0.8646672790055163
571.4822509390069	2.5	A	violation	1	0.9407079849625006
574.4822060489678	2.5	B	violation	0	0.6507449290365912
577.4821559629636	2.5	B	nonviolation	0	0.8747921939939259
580.4821176420082	2.5	B	nonviolation	1	0.8848323779529892
583.4820702999714	2.5	A	violation	1	0.5928800859837793
586.4820288739866	2.5	A	violation	1	0.6579243040177971
