onset	duration	trial_type	condition	response_accuracy	response_time
13.515262306667864	2.5	B	violation	1	1.1836817772127688
16.49855287373066	2.5	B	nonviolation	1	0.9943797881715
19.49851306574419	2.5	A	nonviolation	1	0.7604252528399229
22.498473966028538	2.5	B	nonviolation	0	0.8914585597813129
25.498434349894524	2.5	B	violation	1	0.903498339932412
28.515063888859004	2.5	A	nonviolation	1	0.8588696010410786
31.498354896903038	2.5	B	nonviolation	0	0.9225835697725416
34.498318244703114	2.5	B	nonviolation	0	0.6986197219230235
37.49827881576493	2.5	B	violation	0	0.7956617688760161
40.498239639680826	2.5	A	violation	1	0.9087066990323364
43.49819740699604	2.5	A	violation	1	0.70474060671404
46.498159528709955	2.5	B	violation	0	1.1337860468775034
49.498120094649494	2.5	A	violation	1	0.768819478340447
52.49807791085914	2.5	A	nonviolation	1	0.6688587018288672
55.498042203951634	2.5	A	nonviolation	1	0.6968942638486624
58.49800029071048	2.5	A	violation	1	0.5819701352156699
61.49796029599384	2.5	B	violation	0	0.9509880850091575
64.49792049266398	2.5	B	nonviolation	0	0.9880215823650359
67.49787843273954	2.5	B	violation	1	0.9800251661799848
70.49784071091563	2.5	B	violation	1	0.7791004399769008
73.49779858160764	2.5	B	violation	1	0.8141534463502467
76.49776075966656	2.5	B	nonviolation	0	0.7991022183559835
79.49772077659145	2.5	B	nonviolation	0	0.8141791489906609
82.49768094858155	2.5	A	violation	1	0.8382619363255799
85.49764085374773	2.5	A	violation	1	0.8243066961877048
88.49760090559721	2.5	A	nonviolation	1	0.7603735351003706
91.49756012065336	2.5	A	violation	1	0.7773820939473808
94.49752074666321	2.5	B	nonviolation	0	0.8794229920022191
97.49747809488328	2.5	A	nonviolation	1	0.6704684579744935
100.49744032975286	2.5	A	violation	1	0.8915073270909488
103.49739997601135	2.5	A	violation	1	0.7135522048920393
106.49736065976322	2.5	B	nonviolation	1	0.9786137361079454
109.49732177983971	2.5	A	nonviolation	1	0.8786223391070962
112.49727952899413	2.5	A	violation	1	0.6306728599593043
115.49723520176485	2.5	B	nonviolation	0	0.7417135289870203
118.49719912465662	2.5	A	nonviolation	1	0.6697472291998565
121.49715778091922	2.5	B	nonviolation	1	0.8887909627519548
124.49711866490543	2.5	B	violation	0	0.7668067258782685
127.49707842897622	2.5	A	nonviolation	1	0.8668031916022301
130.49703946895895	2.5	A	nonviolation	1	0.7779216868802905
133.49700074689466	2.5	A	nonviolation	1	0.8079508016817272
136.4969591116533	2.5	A	nonviolation	1	0.8189901923760772
139.49691719375548	2.5	A	violation	1	0.8800300871953368
142.49687546677887	2.5	B	violation	1	1.1690762592479589
145.4968373887241	2.5	B	violation	0	1.0651174769736826
148.49679649388418	2.5	A	violation	1	0.863158187828958
151.49675583699718	2.5	B	violation	1	1.1242788690142334
154.49671590561047	2.5	B	nonviolation	0	0.8892407650128007
157.4966792119667	2.5	A	nonviolation	1	0.7962719118222594
160.49663621373475	2.5	B	nonviolation	0	0.7663168911822141
163.49659483972937	2.5	A	violation	1	0.7323118029162288
166.49655417492613	2.5	B	nonviolation	1	0.7524036560207605
169.49651338765395	2.5	B	violation	1	0.8714418872259557
172.49647229164842	2.5	B	violation	0	0.9804860530421138
175.49643277795985	2.5	B	violation	1	0.8585305227898061
178.49639312596992	2.5	B	nonviolation	1	0.9025628766976296
181.49635132774708	2.5	A	violation	1	0.754603351932019
184.49631136562675	2.5	B	nonviolation	0	1.100655652116984
187.49626917485145	2.5	B	nonviolation	0	0.7316877581179142
190.49623029166835	2.5	B	nonviolation	0	0.8997037149965763
193.49618687294426	2.5	B	violation	1	0.7318014157935977
196.49614809267223	2.5	B	violation	1	0.934814785141498
199.49610988469794	2.5	A	nonviolation	1	0.7298467429354787
202.49606710998341	2.5	A	violation	1	0.6158464858308434
205.49602771084759	2.5	A	nonviolation	1	0.7359029967337847
208.49598625162616	2.5	B	violation	0	0.7389750042930245
211.49594983784482	2.5	A	nonviolation	1	0.6450877268798649
214.49590512271968	2.5	B	nonviolation	1	0.7350556883029641
217.49586486676708	2.5	A	nonviolation	1	0.6931025721132755
220.4958240217529	2.5	B	violation	0	0.7871426022611558
223.4957809867337	2.5	B	violation	1	0.7651836210861802
226.49574295384807	2.5	B	violation	1	0.7562390449456871
229.4957021540031	2.5	A	nonviolation	1	0.7522595748305321
232.49566139886159	2.5	A	violation	1	0.6893073157407343
235.49561899201942	2.5	B	violation	1	0.7363457679748535
238.49557944759727	2.5	A	violation	1	0.7223920822143555
241.49553981889042	2.5	B	nonviolation	0	0.928373065777123
244.495500175748	2.5	B	nonviolation	0	0.8314742189832032
247.49545869184658	2.5	A	violation	1	0.7484802547842264
250.4954185159877	2.5	B	violation	0	0.7146277916617692
253.49537670891726	2.5	A	violation	1	0.7016648040153086
256.4953368389979	2.5	A	violation	1	0.9236317849718034
259.49529669294134	2.5	B	nonviolation	0	0.7426690058782697
262.4952541757375	2.5	A	violation	1	0.6197124100290239
265.49521499779075	2.5	A	nonviolation	1	0.6097653298638761
268.4951751246117	2.5	A	violation	1	0.6067922683432698
271.4951348840259	2.5	A	nonviolation	1	0.5679139415733516
274.4950930918567	2.5	A	violation	1	0.6068788440898061
277.4950521769933	2.5	B	nonviolation	0	0.9899238939397036
280.49500973988324	2.5	A	nonviolation	1	0.6689007999375463
283.4949734718539	2.5	B	violation	1	0.5980032761581242
286.4949327739887	2.5	A	violation	1	1.2130364906042814
289.49489017482847	2.5	A	nonviolation	1	0.916002201847732
292.4948490089737	2.5	B	nonviolation	0	0.8611266459338367
295.4948083437048	2.5	A	nonviolation	1	0.7351686549372971
298.4947681790218	2.5	A	nonviolation	1	0.6222085920162499
301.4947281507775	2.5	B	nonviolation	0	0.8882423969916999
304.4946848237887	2.5	A	violation	1	0.9122904189862312
307.4946464956738	2.5	A	violation	1	0.757327863946557
310.4946052297018	2.5	B	violation	1	0.7293674713000655
313.4945627278648	2.5	A	violation	1	0.6693848459981382
316.49452212592587	2.5	A	nonviolation	1	0.6424576197750866
319.4944836017676	2.5	A	violation	1	0.7545011541806161
322.49444298958406	2.5	B	nonviolation	0	0.7705167783424258
325.4944030418992	2.5	B	nonviolation	0	0.8665471849963069
328.4943596976809	2.5	B	violation	0	0.9596974062733352
331.49432090762997	2.5	A	violation	1	0.5816582869738339
334.494282878004	2.5	A	violation	1	0.6407014615833759
337.4942393526435	2.5	A	nonviolation	1	0.8287382060661912
340.49419899191713	2.5	A	violation	1	0.7417470631189644
343.494158715941	2.5	B	violation	1	0.9478203137405216
346.49411988770584	2.5	A	violation	1	0.7948583210818471
349.49407710600644	2.5	B	nonviolation	0	0.8509042449295521
352.49403661396354	2.5	B	nonviolation	1	0.857940639834851
355.49399742065003	2.5	B	nonviolation	1	1.1279821163043378
358.4939541895874	2.5	A	violation	1	0.6110217901878059
361.493915006984	2.5	B	nonviolation	0	0.8040715488605201
364.4938728427514	2.5	B	nonviolation	1	0.7611277028918266
367.49383141193533	2.5	B	nonviolation	0	0.7251507067121565
370.4937933906913	2.5	A	violation	1	0.6801886949688196
373.4937514606863	2.5	B	violation	1	0.8692400162108243
376.4937098966912	2.5	A	nonviolation	1	0.7842766772955656
379.4936695578508	2.5	B	nonviolation	0	0.7713108900934458
382.493627171032	2.5	B	violation	1	0.7563499379903078
385.4935857518576	2.5	A	nonviolation	1	0.7124022031202912
388.4935479220003	2.5	A	nonviolation	1	0.696437946986407
391.49350677384064	2.5	A	nonviolation	1	0.7584792831912637
394.4934665779583	2.5	A	nonviolation	1	0.8375151827931404
397.49342360300943	2.5	B	nonviolation	1	1.0975606506690383
400.49338741879916	2.5	B	violation	0	0.8876044438220559
403.49334439076483	2.5	A	nonviolation	1	0.5765556981787086
406.49330318765715	2.5	A	nonviolation	1	0.7726792702451348
409.49326297501096	2.5	B	violation	1	0.7827617540024221
412.4932222398929	2.5	A	nonviolation	1	0.7757642208598554
415.49318150477484	2.5	A	nonviolation	1	0.6827240199781954
418.49313847674057	2.5	A	violation	1	0.6898506949655712
421.4930982310325	2.5	B	violation	0	0.9048857726156712
424.49305936787283	2.5	B	violation	1	0.7799336318857968
427.49301681574434	2.5	B	nonviolation	0	0.8978512501344085
430.4929796759971	2.5	A	nonviolation	0	0.8100089579820633
433.49293684074655	2.5	B	violation	1	0.7420546440407634
436.4928960879333	2.5	B	violation	0	1.1051218616776168
439.4928559400141	2.5	A	violation	1	0.6330984397791326
442.49281851388514	2.5	B	violation	0	0.6952058770693839
445.49277399387216	2.5	B	nonviolation	1	1.0792356971651316
448.47606373997405	2.5	B	nonviolation	0	0.8049266510643065
451.4926925445907	2.5	A	violation	1	0.7423035963438451
454.492652002722	2.5	A	violation	1	0.6813419000245631
457.4926115139388	2.5	A	violation	1	0.846376733854413
460.49257036764175	2.5	A	violation	1	0.6364282183349133
463.4758617137559	2.5	B	violation	0	0.7801336171105504
466.4758205749095	2.5	A	nonviolation	1	0.696173878852278
469.4757798858918	2.5	B	nonviolation	1	0.758193033747375
472.47573792887846	2.5	A	nonviolation	1	0.7702571977861226
475.47569816280156	2.5	A	nonviolation	1	0.7002173410728574
478.47565581696114	2.5	B	nonviolation	1	1.0243413946591318
481.4756185258738	2.5	B	nonviolation	1	1.0524047161452472
484.4755777260289	2.5	A	violation	1	0.7864225115627049
487.47553748684	2.5	B	violation	1	1.1204558201134205
490.4754962688312	2.5	B	violation	1	0.7275047269649804
493.4754551807418	2.5	A	nonviolation	1	0.6415492310188711
496.4754127738997	2.5	B	nonviolation	1	0.771584392990917
499.47537483368075	2.5	A	violation	1	0.6356261661276221
502.47533312672755	2.5	B	nonviolation	1	0.9486721600405872
505.4752957848832	2.5	A	violation	1	0.6687051057815552
508.47525132866576	2.5	B	violation	1	0.9417501972056924
511.4752087816596	2.5	B	violation	1	0.9317920240573584
514.4751699599437	2.5	B	nonviolation	1	0.7508322610519826
517.4751267558895	2.5	A	violation	1	0.6668074019253254
520.4750885176471	2.5	A	violation	1	0.6489133499562739
523.4750446546823	2.5	A	nonviolation	1	0.9409663639962672
526.4750069626607	2.5	B	nonviolation	0	0.9369945889338852
529.474964435678	2.5	A	nonviolation	1	0.6320489542558789
532.474926144816	2.5	B	nonviolation	0	0.7050914322026074
535.4748835428618	2.5	B	violation	1	0.7231196230277419
538.4748435178772	2.5	A	nonviolation	1	0.6221658200956881
541.4748009527102	2.5	A	violation	1	0.7222105939872563
544.4747590976767	2.5	B	nonviolation	0	0.7982505839318037
547.4747233358212	2.5	A	nonviolation	1	0.7293464071117342
550.474680359941	2.5	A	nonviolation	1	0.8243257240392268
553.4746380168946	2.5	A	violation	1	0.8353749979287386
556.4745967197232	2.5	B	violation	0	0.9624101249501108
559.4745591436513	2.5	A	nonviolation	1	0.7224524212069809
562.4745158599691	2.5	B	violation	1	0.6934808678925037
565.4744752449915	2.5	B	nonviolation	0	0.7745368368923664
568.4744334346615	2.5	A	violation	1	0.9165657283738256
571.4743949705735	2.5	A	nonviolation	1	0.7526145642623305
574.4743519676848	2.5	B	violation	1	1.157688501290977
577.4743131408468	2.5	B	violation	0	1.0716904979199169
580.4742724886164	2.5	A	nonviolation	1	0.9097406580112876
583.4742318289354	2.5	B	violation	1	0.7337784320116043
586.4741910640149	2.5	B	violation	1	1.2318134028464556
