onset	duration	trial_type	condition	repetition	pairmate	pairID	category	subcategory	response_accuracy	response_time
13.508309246972205	1	postlearning	violation	2	n/a	35	face	female	1	0.5844838689081371
16.508268861100078	1	postlearning	violation	2	n/a	28	face	male	1	0.6305227479897441
19.508228854741898	1	postlearning	violation	2	n/a	23	face	male	1	0.489632276352495
22.5081868218258	1	postlearning	violation	2	n/a	3	face	male	1	0.4546068301424384
25.508149194996804	1	postlearning	violation	2	n/a	11	face	male	1	0.6716429609805346
28.508106156717982	1	postlearning	violation	2	n/a	24	face	male	1	0.6456919591873884
31.50806913385168	1	postlearning	violation	2	n/a	37	face	male	1	0.5156258782371879
34.50803081085905	1	postlearning	violation	2	n/a	31	face	female	1	0.4947676649317145
37.50798817910254	1	postlearning	violation	2	n/a	36	face	male	1	0.608812496997416
40.507949118036784	1	postlearning	violation	2	n/a	1	face	female	1	0.6528492476791143
43.50790775893256	1	postlearning	violation	2	n/a	6	face	female	1	0.6268936879932879
46.507867109961815	1	postlearning	violation	2	n/a	39	face	female	1	0.5909272660501301
49.50782836182043	1	postlearning	violation	2	n/a	26	face	female	1	0.5249713542871177
52.50778673309833	1	postlearning	violation	2	n/a	30	face	male	1	0.494011904578656
55.507747868075974	1	postlearning	violation	2	n/a	45	face	male	1	0.6450558588840067
58.507707478944205	1	postlearning	violation	2	n/a	20	face	female	1	0.5380959399044514
61.50766826793552	1	postlearning	violation	2	n/a	30	face	male	1	0.5861260178498924
64.50762796681374	1	postlearning	violation	2	n/a	38	face	male	1	0.601172368042171
67.50758606893942	1	postlearning	violation	2	n/a	5	face	female	1	0.5212108567357063
70.50754710379988	1	postlearning	violation	2	n/a	5	face	female	1	0.4782589860260487
73.50750673189759	1	postlearning	violation	2	n/a	22	face	female	1	0.5042941127903761
76.50746663706377	1	postlearning	violation	2	n/a	26	face	female	1	0.4853296806104481
79.50742569891736	1	postlearning	violation	2	n/a	43	face	male	1	0.5133708119392395
82.50738395191729	1	postlearning	violation	2	n/a	24	face	male	1	0.6514214598573744
85.5073450258933	1	postlearning	violation	2	n/a	42	face	female	1	0.4904574570246041
88.50730404583739	1	postlearning	violation	2	n/a	35	face	female	1	0.5494318730197847
91.50726761901753	1	postlearning	violation	2	n/a	43	face	male	1	0.6275309859775007
94.50722327083349	1	postlearning	violation	2	n/a	7	face	male	1	0.5735849281772971
97.5071866158396	1	postlearning	violation	2	n/a	34	face	female	1	0.5586116849444807
100.50714359106495	1	postlearning	violation	2	n/a	8	face	male	1	0.5536582679487765
103.50710019189863	1	postlearning	violation	2	n/a	14	face	female	1	0.5917012342251837
106.50706273503602	1	postlearning	violation	2	n/a	46	face	female	1	0.5217376900836825
109.50702162366359	1	postlearning	violation	2	n/a	16	face	male	1	0.5297814402729273
112.50698112789541	1	postlearning	violation	2	n/a	19	face	male	1	0.5688314978033304
115.5069409287535	1	postlearning	violation	2	n/a	23	face	male	1	0.4638627860695124
118.50690081901848	1	postlearning	violation	2	n/a	28	face	male	1	0.54388327896595
121.5068583069369	1	postlearning	violation	2	n/a	42	face	female	1	0.8179402947425842
124.50682034390049	1	postlearning	violation	2	n/a	22	face	female	1	0.5819866331294179
127.50677969167008	1	postlearning	violation	2	n/a	32	face	female	1	0.8780233813449742
130.50673958379775	1	postlearning	violation	2	n/a	37	face	male	1	0.6240656399168074
133.5066983900033	1	postlearning	violation	2	n/a	20	face	female	1	0.5351143898442388
136.50665599899366	1	postlearning	violation	2	n/a	33	face	female	1	0.6141175618395209
139.50661563966423	1	postlearning	violation	2	n/a	29	face	male	1	0.694192185997963
142.5065763858147	1	postlearning	violation	2	n/a	38	face	male	1	0.6502354298718274
145.506536107976	1	postlearning	violation	2	n/a	2	face	male	1	0.5982734388671815
148.5064959470183	1	postlearning	violation	2	n/a	32	face	female	1	0.50031733000651
151.50645539304242	1	postlearning	violation	2	n/a	48	face	male	1	0.6483513419516385
154.50641784304753	1	postlearning	violation	2	n/a	17	face	female	1	0.5143838878720999
157.50637500593442	1	postlearning	violation	2	n/a	4	face	female	1	0.7264323900453746
160.50633330596608	1	postlearning	violation	2	n/a	47	face	female	1	0.4974790830165148
163.50629255082458	1	postlearning	violation	2	n/a	7	face	male	1	0.5355911911465228
166.50624960567802	1	postlearning	violation	2	n/a	47	face	female	1	0.8334776554256678
169.50621266290545	1	postlearning	violation	2	n/a	9	face	female	1	0.7135964720509946
172.50617119204253	1	postlearning	violation	2	n/a	9	face	female	1	0.5766397686675191
175.50612956704572	1	postlearning	violation	2	n/a	15	face	male	1	0.5746888299472629
178.50608905777335	1	postlearning	violation	2	n/a	25	face	female	1	0.5077217980287969
181.50604888703674	1	postlearning	violation	2	n/a	31	face	female	1	0.4988454170525074
184.50600906508046	1	postlearning	violation	2	n/a	29	face	male	1	0.5548017546534538
187.50597186898813	1	postlearning	violation	2	n/a	11	face	male	1	0.4868419971317053
190.50592506909743	1	postlearning	violation	2	n/a	12	face	male	1	0.4828062918968498
193.5058868280612	1	postlearning	violation	2	n/a	21	face	female	1	0.7519305916503072
196.505847692024	1	postlearning	violation	2	n/a	13	face	female	1	0.5229655588045716
199.4891405720264	1	postlearning	violation	2	n/a	6	face	female	1	0.5926777170971036
202.50576396193355	1	postlearning	violation	2	n/a	19	face	male	1	0.5550506291911006
205.50572321703655	1	postlearning	violation	2	n/a	36	face	male	1	0.6420998889952898
208.4890181669034	1	postlearning	violation	2	n/a	39	face	female	1	0.6058036987669766
211.50564222084358	1	postlearning	violation	2	n/a	27	face	male	1	0.5971766510047019
214.4889318738133	1	postlearning	violation	2	n/a	18	face	male	1	0.5528899170458317
217.48889135895297	1	postlearning	violation	2	n/a	27	face	male	1	0.4879937088117003
220.4888512548059	1	postlearning	violation	2	n/a	17	face	female	1	0.4999742079526186
223.488815756049	1	postlearning	violation	2	n/a	13	face	female	1	0.5050091580487788
226.48877354478464	1	postlearning	violation	2	n/a	41	face	female	1	0.548985939938575
229.4887947877869	1	postlearning	violation	2	n/a	1	face	female	1	0.5520326569676399
232.48868944868443	1	postlearning	violation	2	n/a	44	face	male	1	0.5731299221515656
235.4886499796994	1	postlearning	violation	2	n/a	4	face	female	1	0.532224812079221
238.4886094508693	1	postlearning	violation	2	n/a	10	face	female	1	0.4161328189074993
241.48856647778302	1	postlearning	violation	2	n/a	48	face	male	1	0.5022527943365276
244.48852763976902	1	postlearning	violation	2	n/a	15	face	male	1	0.4672894282266498
247.48848699079826	1	postlearning	violation	2	n/a	25	face	female	1	0.4383303760550916
250.48844804987309	1	postlearning	violation	2	n/a	40	face	male	1	0.5923690930940211
253.48840546095744	1	postlearning	violation	2	n/a	3	face	male	1	0.5894234869629145
256.4883639868349	1	postlearning	violation	2	n/a	34	face	female	1	0.5584627152420579
259.48833032511175	1	postlearning	violation	2	n/a	16	face	male	1	0.5224949228577316
262.48828280484304	1	postlearning	violation	2	n/a	40	face	male	1	0.5545386788435279
265.48824186995625	1	postlearning	violation	2	n/a	10	face	female	1	0.6105837919749321
268.4882011129521	1	postlearning	violation	2	n/a	21	face	female	1	0.5995587110519409
271.48816556110984	1	postlearning	violation	2	n/a	2	face	male	1	0.7446626746095717
274.4881193949841	1	postlearning	violation	2	n/a	14	face	female	1	0.5747130429372191
277.4880786528811	1	postlearning	violation	2	n/a	44	face	male	1	0.5587427751161158
280.4880373766646	1	postlearning	violation	2	n/a	33	face	female	1	0.5637950464151801
283.48799696285283	1	postlearning	violation	2	n/a	41	face	female	1	0.5838339161127806
286.48795553389937	1	postlearning	violation	2	n/a	46	face	female	1	0.6608707490377128
289.48791214684024	1	postlearning	violation	2	n/a	8	face	male	1	0.5769139071926475
292.4878729688935	1	postlearning	violation	2	n/a	12	face	male	1	0.6569598079659045
295.48783318372443	1	postlearning	violation	2	n/a	18	face	male	1	0.6610024250112474
298.4877921110019	1	postlearning	violation	2	n/a	45	face	male	1	0.4960417458787561
