onset	duration	trial_type	reward_condition	condition	repetition	pairmate	pairID	response_accuracy	response_time
13.499619245063515	2.5	scene	neutral	violation	3	A	32	1	0.8266815179958941
15.999619245063515	3.0	feedback	n/a	n/a	n/a	n/a	n/a	n/a	n/a
19.499538828153163	2.5	scene	reward	nonviolation	3	A	85	1	0.6397603931836784
21.999538828153163	3.0	feedback	n/a	n/a	n/a	n/a	n/a	n/a	n/a
25.49946029530838	2.5	scene	reward	violation	3	A	16	1	0.654837769921869
27.99946029530838	3.0	feedback	n/a	n/a	n/a	n/a	n/a	n/a	n/a
31.49938086606562	2.5	scene	neutral	nonviolation	3	A	58	1	0.6229322822764516
33.99938086606562	3.0	feedback	n/a	n/a	n/a	n/a	n/a	n/a	n/a
37.499312466941774	2.5	scene	reward	nonviolation	3	A	50	1	0.6450648531317711
39.999312466941774	3.0	feedback	n/a	n/a	n/a	n/a	n/a	n/a	n/a
43.49922526814044	2.5	scene	neutral	nonviolation	3	A	82	1	0.6420790329575539
45.99922526814044	3.0	feedback	n/a	n/a	n/a	n/a	n/a	n/a	n/a
49.499143863096826	2.5	scene	neutral	nonviolation	3	A	94	1	0.6191595601849258
51.999143863096826	3.0	feedback	n/a	n/a	n/a	n/a	n/a	n/a	n/a
55.49906647903846	2.5	scene	neutral	nonviolation	3	A	90	1	0.8022358398884535
57.99906647903846	3.0	feedback	n/a	n/a	n/a	n/a	n/a	n/a	n/a
61.49898467911407	2.5	scene	reward	nonviolation	3	A	81	1	0.924315820913762
63.99898467911407	3.0	feedback	n/a	n/a	n/a	n/a	n/a	n/a	n/a
67.49890672322363	2.5	scene	neutral	violation	3	A	45	1	0.6894050799310207
69.99890672322363	3.0	feedback	n/a	n/a	n/a	n/a	n/a	n/a	n/a
73.49882643623278	2.5	scene	neutral	nonviolation	3	A	52	1	0.7993954918347299
75.99882643623278	3.0	feedback	n/a	n/a	n/a	n/a	n/a	n/a	n/a
79.49874912202358	2.5	scene	reward	nonviolation	3	A	63	1	0.6805572500452399
81.99874912202358	3.0	feedback	n/a	n/a	n/a	n/a	n/a	n/a	n/a
85.49866969324648	2.5	scene	reward	violation	3	A	30	1	0.7626352827064693
87.99866969324648	3.0	feedback	n/a	n/a	n/a	n/a	n/a	n/a	n/a
91.49858947936443	2.5	scene	neutral	nonviolation	3	A	78	1	0.6667184620164335
93.99858947936443	3.0	feedback	n/a	n/a	n/a	n/a	n/a	n/a	n/a
97.4985096892342	2.5	scene	reward	violation	3	A	43	1	0.678803829010576
99.9985096892342	3.0	feedback	n/a	n/a	n/a	n/a	n/a	n/a	n/a
103.49843023112044	2.5	scene	neutral	violation	3	A	33	1	0.6228789682500064
105.99843023112044	3.0	feedback	n/a	n/a	n/a	n/a	n/a	n/a	n/a
109.49835033621642	2.5	scene	reward	nonviolation	3	A	77	1	0.6199595499783754
111.99835033621642	3.0	feedback	n/a	n/a	n/a	n/a	n/a	n/a	n/a
115.49827038822694	2.5	scene	reward	violation	3	A	42	1	0.6829599430784583
117.99827038822694	3.0	feedback	n/a	n/a	n/a	n/a	n/a	n/a	n/a
121.49819009937346	2.5	scene	neutral	nonviolation	3	A	86	1	0.9381266138516366
123.99819009937346	3.0	feedback	n/a	n/a	n/a	n/a	n/a	n/a	n/a
127.4981100023724	2.5	scene	neutral	violation	3	A	10	1	0.7792077627964318
129.99811000237239	3.0	feedback	n/a	n/a	n/a	n/a	n/a	n/a	n/a
133.49802893400192	2.5	scene	neutral	violation	3	A	18	1	1.0982923633418975
135.99802893400192	3.0	feedback	n/a	n/a	n/a	n/a	n/a	n/a	n/a
139.497948941309	2.5	scene	neutral	violation	3	A	6	1	0.6263632639311254
141.997948941309	3.0	feedback	n/a	n/a	n/a	n/a	n/a	n/a	n/a
145.4978672401048	2.5	scene	reward	violation	3	A	31	1	0.6834477479569614
147.9978672401048	3.0	feedback	n/a	n/a	n/a	n/a	n/a	n/a	n/a
151.49778900109231	2.5	scene	reward	violation	3	A	3	1	0.6695256768725812
153.99778900109231	3.0	feedback	n/a	n/a	n/a	n/a	n/a	n/a	n/a
157.49770857999098	2.5	scene	neutral	nonviolation	3	A	51	1	0.6636045593768358
159.99770857999098	3.0	feedback	n/a	n/a	n/a	n/a	n/a	n/a	n/a
163.49932337319478	2.5	scene	neutral	violation	3	A	27	1	0.7319922908209264
165.99932337319478	3.0	feedback	n/a	n/a	n/a	n/a	n/a	n/a	n/a
169.50006110407412	2.5	scene	neutral	violation	3	A	2	1	0.6572535941377282
172.00006110407415	3.0	feedback	n/a	n/a	n/a	n/a	n/a	n/a	n/a
175.49746652925387	2.5	scene	reward	violation	3	A	17	0	0.5428516548126936
177.99746652925387	3.0	feedback	n/a	n/a	n/a	n/a	n/a	n/a	n/a
181.4973849123344	2.5	scene	reward	violation	3	A	14	1	0.7500016950070858
183.9973849123344	3.0	feedback	n/a	n/a	n/a	n/a	n/a	n/a	n/a
187.49730431707576	2.5	scene	neutral	violation	3	A	20	1	0.6810127343051136
189.99730431707576	3.0	feedback	n/a	n/a	n/a	n/a	n/a	n/a	n/a
193.49722592299804	2.5	scene	reward	nonviolation	3	A	49	1	0.6870945012196898
195.99722592299804	3.0	feedback	n/a	n/a	n/a	n/a	n/a	n/a	n/a
199.49714373936882	2.5	scene	neutral	nonviolation	3	A	72	1	0.687186170835048
201.99714373936882	3.0	feedback	n/a	n/a	n/a	n/a	n/a	n/a	n/a
205.49706217227504	2.5	scene	neutral	nonviolation	3	A	64	1	0.7312567480839789
207.99706217227504	3.0	feedback	n/a	n/a	n/a	n/a	n/a	n/a	n/a
211.49698248924688	2.5	scene	neutral	nonviolation	3	A	74	1	0.6383512490428984
213.99698248924688	3.0	feedback	n/a	n/a	n/a	n/a	n/a	n/a	n/a
217.49690391402686	2.5	scene	reward	violation	3	A	24	1	0.9604135933332144
219.99690391402686	3.0	feedback	n/a	n/a	n/a	n/a	n/a	n/a	n/a
223.49701179796833	2.5	scene	reward	nonviolation	3	A	71	1	0.6662351731210947
225.99701179796833	3.0	feedback	n/a	n/a	n/a	n/a	n/a	n/a	n/a
229.4967425619252	2.5	scene	neutral	violation	3	A	41	1	0.7015886870212853
231.9967425619252	3.0	feedback	n/a	n/a	n/a	n/a	n/a	n/a	n/a
235.49728529807183	2.5	scene	reward	violation	3	A	39	1	0.6819592132233083
237.99728529807183	3.0	feedback	n/a	n/a	n/a	n/a	n/a	n/a	n/a
241.4965819381177	2.5	scene	reward	violation	3	A	4	1	0.7417453899979591
243.9965819381177	3.0	feedback	n/a	n/a	n/a	n/a	n/a	n/a	n/a
247.49650013027713	2.5	scene	neutral	violation	3	A	40	1	0.652821680996567
249.99650013027713	3.0	feedback	n/a	n/a	n/a	n/a	n/a	n/a	n/a
253.49642082117495	2.5	scene	neutral	violation	3	A	15	1	0.8029235750436783
255.99642082117495	3.0	feedback	n/a	n/a	n/a	n/a	n/a	n/a	n/a
259.4963401192799	2.5	scene	reward	nonviolation	3	A	73	1	0.7189869768917561
261.9963401192799	3.0	feedback	n/a	n/a	n/a	n/a	n/a	n/a	n/a
265.4962603133172	2.5	scene	reward	nonviolation	3	A	60	1	0.7150685228407383
267.9962603133172	3.0	feedback	n/a	n/a	n/a	n/a	n/a	n/a	n/a
271.49617948336527	2.5	scene	reward	nonviolation	3	A	96	1	0.6651498829014599
273.99617948336527	3.0	feedback	n/a	n/a	n/a	n/a	n/a	n/a	n/a
277.4960986049846	2.5	scene	reward	nonviolation	3	A	91	1	0.7632334199734032
279.9960986049846	3.0	feedback	n/a	n/a	n/a	n/a	n/a	n/a	n/a
283.4960178192705	2.5	scene	reward	nonviolation	3	A	67	1	0.68831188371405
285.9960178192705	3.0	feedback	n/a	n/a	n/a	n/a	n/a	n/a	n/a
289.4959378489293	2.5	scene	reward	violation	3	A	37	1	0.7954179551452398
291.9959378489293	3.0	feedback	n/a	n/a	n/a	n/a	n/a	n/a	n/a
295.49585503619164	2.5	scene	neutral	nonviolation	3	A	70	1	0.7424891740083694
297.99585503619164	3.0	feedback	n/a	n/a	n/a	n/a	n/a	n/a	n/a
301.4957755962387	2.5	scene	neutral	violation	4	A	40	1	0.7945581180974841
303.9957755962387	3.0	feedback	n/a	n/a	n/a	n/a	n/a	n/a	n/a
307.495694660116	2.5	scene	neutral	nonviolation	4	A	86	1	0.7546410812065005
309.995694660116	3.0	feedback	n/a	n/a	n/a	n/a	n/a	n/a	n/a
313.4956144569442	2.5	scene	reward	violation	4	A	17	1	0.7147273323498666
315.9956144569442	3.0	feedback	n/a	n/a	n/a	n/a	n/a	n/a	n/a
319.49553169403225	2.5	scene	reward	violation	4	A	24	1	0.6598038063384593
321.99553169403225	3.0	feedback	n/a	n/a	n/a	n/a	n/a	n/a	n/a
325.49545229924837	2.5	scene	reward	violation	4	A	42	1	0.6778844441287221
327.99545229924837	3.0	feedback	n/a	n/a	n/a	n/a	n/a	n/a	n/a
331.4953717901372	2.5	scene	reward	nonviolation	4	A	60	1	0.6089705522172153
333.9953717901372	3.0	feedback	n/a	n/a	n/a	n/a	n/a	n/a	n/a
337.4952906663529	2.5	scene	neutral	violation	4	A	20	1	0.7430445677600801
339.9952906663529	3.0	feedback	n/a	n/a	n/a	n/a	n/a	n/a	n/a
343.49521036725486	2.5	scene	neutral	nonviolation	4	A	51	1	0.7561272280290723
345.99521036725486	3.0	feedback	n/a	n/a	n/a	n/a	n/a	n/a	n/a
349.49512791214516	2.5	scene	reward	violation	4	A	3	1	0.6052099610678852
351.99512791214516	3.0	feedback	n/a	n/a	n/a	n/a	n/a	n/a	n/a
355.49504833295936	2.5	scene	reward	violation	4	A	43	1	0.7942873532883823
357.99504833295936	3.0	feedback	n/a	n/a	n/a	n/a	n/a	n/a	n/a
361.4949654820375	2.5	scene	neutral	nonviolation	4	A	72	1	0.7143731010146439
363.9949654820375	3.0	feedback	n/a	n/a	n/a	n/a	n/a	n/a	n/a
367.49488711310545	2.5	scene	neutral	nonviolation	4	A	94	1	0.781451057177037
369.99488711310545	3.0	feedback	n/a	n/a	n/a	n/a	n/a	n/a	n/a
373.494805986993	2.5	scene	neutral	nonviolation	4	A	52	1	1.0455340412445366
375.994805986993	3.0	feedback	n/a	n/a	n/a	n/a	n/a	n/a	n/a
379.4947247751989	2.5	scene	reward	nonviolation	4	A	85	1	0.8626182591542602
381.9947247751989	3.0	feedback	n/a	n/a	n/a	n/a	n/a	n/a	n/a
385.49464084999636	2.5	scene	neutral	nonviolation	4	A	78	1	0.7537048552185297
387.99464084999636	3.0	feedback	n/a	n/a	n/a	n/a	n/a	n/a	n/a
391.49456233531237	2.5	scene	neutral	violation	4	A	18	1	0.7568106628023088
393.99456233531237	3.0	feedback	n/a	n/a	n/a	n/a	n/a	n/a	n/a
397.49447999615217	2.5	scene	reward	nonviolation	4	A	77	1	0.6108633978292346
399.99447999615217	3.0	feedback	n/a	n/a	n/a	n/a	n/a	n/a	n/a
403.4944016039372	2.5	scene	reward	violation	4	A	31	1	0.696937651373446
405.9944016039372	3.0	feedback	n/a	n/a	n/a	n/a	n/a	n/a	n/a
409.4943200172857	2.5	scene	reward	violation	4	A	4	1	0.6230246326886117
411.9943200172857	3.0	feedback	n/a	n/a	n/a	n/a	n/a	n/a	n/a
415.494242397137	2.5	scene	reward	nonviolation	4	A	49	1	0.6621020231395961
417.994242397137	3.0	feedback	n/a	n/a	n/a	n/a	n/a	n/a	n/a
421.4941583313048	2.5	scene	neutral	nonviolation	4	A	58	1	0.6022542328573763
423.9941583313048	3.0	feedback	n/a	n/a	n/a	n/a	n/a	n/a	n/a
427.4940767609514	2.5	scene	reward	nonviolation	4	A	63	1	0.6912707001902163
429.9940767609514	3.0	feedback	n/a	n/a	n/a	n/a	n/a	n/a	n/a
433.4939956953749	2.5	scene	reward	nonviolation	4	A	96	1	0.721364060882479
435.9939956953749	3.0	feedback	n/a	n/a	n/a	n/a	n/a	n/a	n/a
439.4772528023459	2.5	scene	reward	violation	4	A	16	1	0.7181029617786407
441.9772528023459	3.0	feedback	n/a	n/a	n/a	n/a	n/a	n/a	n/a
445.4771676980889	2.5	scene	neutral	violation	4	A	10	1	0.6751847988925874
447.9771676980889	3.0	feedback	n/a	n/a	n/a	n/a	n/a	n/a	n/a
451.47708674333984	2.5	scene	neutral	violation	4	A	27	1	0.9432645100168884
453.97708674333984	3.0	feedback	n/a	n/a	n/a	n/a	n/a	n/a	n/a
457.47700753901154	2.5	scene	neutral	violation	4	A	15	1	0.7573446580208838
459.97700753901154	3.0	feedback	n/a	n/a	n/a	n/a	n/a	n/a	n/a
463.47692831000313	2.5	scene	reward	nonviolation	4	A	71	1	0.6084242253564298
465.97692831000313	3.0	feedback	n/a	n/a	n/a	n/a	n/a	n/a	n/a
469.4768473873846	2.5	scene	neutral	violation	4	A	32	1	0.5785135086625814
471.9768473873846	3.0	feedback	n/a	n/a	n/a	n/a	n/a	n/a	n/a
475.4767650202848	2.5	scene	neutral	nonviolation	4	A	70	1	0.6245897146873176
477.9767650202848	3.0	feedback	n/a	n/a	n/a	n/a	n/a	n/a	n/a
481.4766845232807	2.5	scene	neutral	violation	4	A	45	1	0.5825920407660306
483.9766845232807	3.0	feedback	n/a	n/a	n/a	n/a	n/a	n/a	n/a
487.4766039382665	2.5	scene	reward	nonviolation	4	A	91	1	0.7637530150823295
489.9766039382665	3.0	feedback	n/a	n/a	n/a	n/a	n/a	n/a	n/a
493.4765234263614	2.5	scene	reward	violation	4	A	30	1	0.8507580338045955
495.9765234263614	3.0	feedback	n/a	n/a	n/a	n/a	n/a	n/a	n/a
499.4764420739375	2.5	scene	reward	nonviolation	4	A	73	1	0.6959266150370239
501.9764420739375	3.0	feedback	n/a	n/a	n/a	n/a	n/a	n/a	n/a
505.47636722121393	2.5	scene	neutral	violation	4	A	2	1	0.6280710487626493
507.97636722121393	3.0	feedback	n/a	n/a	n/a	n/a	n/a	n/a	n/a
511.47628059098497	2.5	scene	neutral	nonviolation	4	A	64	1	0.6110766469500959
513.9762805909851	3.0	feedback	n/a	n/a	n/a	n/a	n/a	n/a	n/a
517.4761994369328	2.5	scene	reward	violation	4	A	14	1	0.9010817953385412
519.9761994369328	3.0	feedback	n/a	n/a	n/a	n/a	n/a	n/a	n/a
523.4761185841635	2.5	scene	neutral	violation	4	A	6	1	0.6842414010316133
525.9761185841635	3.0	feedback	n/a	n/a	n/a	n/a	n/a	n/a	n/a
529.4760380373336	2.5	scene	reward	nonviolation	4	A	67	1	0.9303247989155352
531.9760380373336	3.0	feedback	n/a	n/a	n/a	n/a	n/a	n/a	n/a
535.4759570793249	2.5	scene	neutral	violation	4	A	41	1	0.6764059816487134
537.9759570793249	3.0	feedback	n/a	n/a	n/a	n/a	n/a	n/a	n/a
541.4758757450618	2.5	scene	reward	violation	4	A	37	1	0.6844855030067265
543.9758757450618	3.0	feedback	n/a	n/a	n/a	n/a	n/a	n/a	n/a
547.4757934929803	2.5	scene	neutral	nonviolation	4	A	82	1	0.7165685431100428
549.9757934929803	3.0	feedback	n/a	n/a	n/a	n/a	n/a	n/a	n/a
553.4757147231138	2.5	scene	neutral	violation	4	A	33	1	0.5926545248366892
555.9757147231138	3.0	feedback	n/a	n/a	n/a	n/a	n/a	n/a	n/a
559.4756325869821	2.5	scene	reward	nonviolation	4	A	50	1	0.7417343920096755
561.9756325869821	3.0	feedback	n/a	n/a	n/a	n/a	n/a	n/a	n/a
565.4755516313016	2.5	scene	neutral	nonviolation	4	A	90	1	0.8967168610543013
567.9755516313016	3.0	feedback	n/a	n/a	n/a	n/a	n/a	n/a	n/a
571.4754707901739	2.5	scene	reward	violation	4	A	39	1	0.7318975571542978
573.9754707901739	3.0	feedback	n/a	n/a	n/a	n/a	n/a	n/a	n/a
577.4753902512603	2.5	scene	neutral	nonviolation	4	A	74	1	0.6639967970550059
579.9753902512603	3.0	feedback	n/a	n/a	n/a	n/a	n/a	n/a	n/a
583.4753071493468	2.5	scene	reward	nonviolation	4	A	81	1	0.7190593867562711
585.9753071493468	3.0	feedback	n/a	n/a	n/a	n/a	n/a	n/a	n/a
