onset	duration	trial_type	reward_condition	condition	repetition	pairmate	pairID	response_accuracy	response_time
13.508836118038746	2.5	scene	neutral	nonviolation	1	A	75	1	1.0186700588092208
16.008836118038744	3.0	feedback	n/a	n/a	n/a	n/a	n/a	n/a	n/a
19.507688655983657	2.5	scene	reward	violation	1	A	34	0	1.1498183552175758
22.007688655983657	3.0	feedback	n/a	n/a	n/a	n/a	n/a	n/a	n/a
25.50809511123225	2.5	scene	reward	violation	1	A	11	0	1.2024104869924486
28.00809511123225	3.0	feedback	n/a	n/a	n/a	n/a	n/a	n/a	n/a
31.50753122800961	2.5	scene	neutral	nonviolation	1	A	92	1	0.8929304359480739
34.00753122800961	3.0	feedback	n/a	n/a	n/a	n/a	n/a	n/a	n/a
37.50745266303421	2.5	scene	neutral	violation	1	A	12	0	1.3150551267899573
40.00745266303421	3.0	feedback	n/a	n/a	n/a	n/a	n/a	n/a	n/a
43.507373309228576	2.5	scene	neutral	violation	1	A	9	1	0.845118629746139
46.007373309228576	3.0	feedback	n/a	n/a	n/a	n/a	n/a	n/a	n/a
49.50729196704925	2.5	scene	reward	nonviolation	1	A	54	0	1.1602229718118906
52.00729196704925	3.0	feedback	n/a	n/a	n/a	n/a	n/a	n/a	n/a
55.50721492618322	2.5	scene	neutral	violation	1	A	46	1	1.2243349920026958
58.00721492618322	3.0	feedback	n/a	n/a	n/a	n/a	n/a	n/a	n/a
61.50713607808574	2.5	scene	neutral	nonviolation	1	A	89	1	0.975375889800489
64.00713607808575	3.0	feedback	n/a	n/a	n/a	n/a	n/a	n/a	n/a
67.50705587910488	2.5	scene	neutral	nonviolation	1	A	65	0	1.2964817760512233
70.00705587910488	3.0	feedback	n/a	n/a	n/a	n/a	n/a	n/a	n/a
73.50697585614398	2.5	scene	reward	violation	1	A	47	1	0.9975478961132468
76.00697585614398	3.0	feedback	n/a	n/a	n/a	n/a	n/a	n/a	n/a
79.5068962010555	2.5	scene	reward	nonviolation	1	A	87	0	1.410619127098471
82.0068962010555	3.0	feedback	n/a	n/a	n/a	n/a	n/a	n/a	n/a
85.5068174530752	2.5	scene	reward	violation	1	A	5	1	0.8336979318410158
88.0068174530752	3.0	feedback	n/a	n/a	n/a	n/a	n/a	n/a	n/a
91.50673665013164	2.5	scene	neutral	violation	1	A	44	1	1.4807991636916995
94.00673665013164	3.0	feedback	n/a	n/a	n/a	n/a	n/a	n/a	n/a
97.50665796687828	2.5	scene	neutral	violation	1	A	29	1	1.1497737029567359
100.00665796687828	3.0	feedback	n/a	n/a	n/a	n/a	n/a	n/a	n/a
103.50657619722188	2.5	scene	reward	violation	1	A	13	1	1.2348708189092577
106.00657619722188	3.0	feedback	n/a	n/a	n/a	n/a	n/a	n/a	n/a
109.50649855518715	2.5	scene	reward	nonviolation	1	A	76	1	0.903020964935422
112.00649855518715	3.0	feedback	n/a	n/a	n/a	n/a	n/a	n/a	n/a
115.50641818484293	2.5	scene	reward	nonviolation	1	A	68	0	0.8930990882217884
118.00641818484293	3.0	feedback	n/a	n/a	n/a	n/a	n/a	n/a	n/a
121.50633564591408	2.5	scene	reward	violation	1	A	36	1	0.8691849429160357
124.00633564591408	3.0	feedback	n/a	n/a	n/a	n/a	n/a	n/a	n/a
127.50625909818336	2.5	scene	neutral	nonviolation	1	A	84	1	1.2612986750900743
130.00625909818336	3.0	feedback	n/a	n/a	n/a	n/a	n/a	n/a	n/a
133.50617827614772	2.5	scene	reward	violation	1	A	22	0	0.8633425571024418
136.00617827614772	3.0	feedback	n/a	n/a	n/a	n/a	n/a	n/a	n/a
139.50609841709957	2.5	scene	reward	nonviolation	1	A	79	0	0.7884328979998827
142.00609841709957	3.0	feedback	n/a	n/a	n/a	n/a	n/a	n/a	n/a
145.50601834896955	2.5	scene	reward	violation	1	A	48	0	0.8265064232982695
148.00601834896955	3.0	feedback	n/a	n/a	n/a	n/a	n/a	n/a	n/a
151.5059382081963	2.5	scene	reward	nonviolation	1	A	69	1	0.8565895077772439
154.0059382081963	3.0	feedback	n/a	n/a	n/a	n/a	n/a	n/a	n/a
157.50585845718157	2.5	scene	neutral	violation	1	A	1	0	1.3406658940948546
160.00585845718157	3.0	feedback	n/a	n/a	n/a	n/a	n/a	n/a	n/a
163.50577486818656	2.5	scene	neutral	violation	1	A	23	0	0.9277543127536774
166.00577486818656	3.0	feedback	n/a	n/a	n/a	n/a	n/a	n/a	n/a
169.5057012378238	2.5	scene	neutral	nonviolation	1	A	66	1	1.2657961072400212
172.00570123782384	3.0	feedback	n/a	n/a	n/a	n/a	n/a	n/a	n/a
175.50561621924862	2.5	scene	neutral	nonviolation	1	A	61	1	0.7959048897027969
178.00561621924862	3.0	feedback	n/a	n/a	n/a	n/a	n/a	n/a	n/a
181.5055360929109	2.5	scene	neutral	violation	1	A	21	1	1.0969990519806745
184.0055360929109	3.0	feedback	n/a	n/a	n/a	n/a	n/a	n/a	n/a
187.50545554794368	2.5	scene	neutral	nonviolation	1	A	56	1	0.8250686503015459
190.00545554794368	3.0	feedback	n/a	n/a	n/a	n/a	n/a	n/a	n/a
193.50537480600173	2.5	scene	neutral	nonviolation	1	A	88	1	0.9571617050096392
196.00537480600173	3.0	feedback	n/a	n/a	n/a	n/a	n/a	n/a	n/a
199.50529414601624	2.5	scene	neutral	violation	1	A	25	1	1.0832351269200444
202.00529414601624	3.0	feedback	n/a	n/a	n/a	n/a	n/a	n/a	n/a
205.50521509023383	2.5	scene	reward	violation	1	A	19	1	0.6913135177455842
208.00521509023383	3.0	feedback	n/a	n/a	n/a	n/a	n/a	n/a	n/a
211.50513415923345	2.5	scene	neutral	violation	1	A	35	1	1.2522678817622364
214.00513415923345	3.0	feedback	n/a	n/a	n/a	n/a	n/a	n/a	n/a
217.50505180982876	2.5	scene	neutral	violation	1	A	8	1	0.794505556114018
220.00505180982876	3.0	feedback	n/a	n/a	n/a	n/a	n/a	n/a	n/a
223.5049733328633	2.5	scene	neutral	violation	1	A	38	1	1.4915685709565878
226.0049733328633	3.0	feedback	n/a	n/a	n/a	n/a	n/a	n/a	n/a
229.5048918230459	2.5	scene	reward	nonviolation	1	A	95	0	0.8637203001417221
232.0048918230459	3.0	feedback	n/a	n/a	n/a	n/a	n/a	n/a	n/a
235.48814227618283	2.5	scene	neutral	nonviolation	1	A	55	1	1.0114114270545542
237.98814227618283	3.0	feedback	n/a	n/a	n/a	n/a	n/a	n/a	n/a
241.48806038219482	2.5	scene	reward	nonviolation	1	A	83	1	1.1394918048754334
243.98806038219482	3.0	feedback	n/a	n/a	n/a	n/a	n/a	n/a	n/a
247.50465080793944	2.5	scene	reward	nonviolation	1	A	53	0	0.8078899551182985
250.00465080793944	3.0	feedback	n/a	n/a	n/a	n/a	n/a	n/a	n/a
253.4879004661925	2.5	scene	neutral	nonviolation	1	A	57	1	0.7606555847451091
255.9879004661925	3.0	feedback	n/a	n/a	n/a	n/a	n/a	n/a	n/a
259.487821708899	2.5	scene	reward	violation	1	A	28	1	0.975717283319682
261.987821708899	3.0	feedback	n/a	n/a	n/a	n/a	n/a	n/a	n/a
265.48774034390226	2.5	scene	neutral	nonviolation	1	A	80	1	0.890805603004992
267.98774034390226	3.0	feedback	n/a	n/a	n/a	n/a	n/a	n/a	n/a
271.4876583078876	2.5	scene	reward	violation	1	A	7	1	0.7738843620754778
273.9876583078876	3.0	feedback	n/a	n/a	n/a	n/a	n/a	n/a	n/a
277.48757981089875	2.5	scene	reward	violation	1	A	26	1	1.2589621092192829
279.98757981089875	3.0	feedback	n/a	n/a	n/a	n/a	n/a	n/a	n/a
283.48749924404547	2.5	scene	reward	nonviolation	1	A	62	1	1.3270390448160472
285.98749924404547	3.0	feedback	n/a	n/a	n/a	n/a	n/a	n/a	n/a
289.48741913819686	2.5	scene	reward	nonviolation	1	A	59	1	1.3181212879717352
291.98741913819686	3.0	feedback	n/a	n/a	n/a	n/a	n/a	n/a	n/a
295.4873457131908	2.5	scene	reward	nonviolation	1	A	93	0	0.7631962159648538
297.9873457131908	3.0	feedback	n/a	n/a	n/a	n/a	n/a	n/a	n/a
301.48725810600445	2.5	scene	reward	nonviolation	2	A	76	1	0.8403661539778113
303.98725810600445	3.0	feedback	n/a	n/a	n/a	n/a	n/a	n/a	n/a
307.48717539105564	2.5	scene	reward	nonviolation	2	A	68	1	0.679364921990782
309.98717539105564	3.0	feedback	n/a	n/a	n/a	n/a	n/a	n/a	n/a
313.48709567124024	2.5	scene	neutral	violation	2	A	12	1	1.1753340139985085
315.98709567124024	3.0	feedback	n/a	n/a	n/a	n/a	n/a	n/a	n/a
319.4870130410418	2.5	scene	neutral	nonviolation	2	A	61	1	1.0015365611761808
321.9870130410418	3.0	feedback	n/a	n/a	n/a	n/a	n/a	n/a	n/a
325.48693571193144	2.5	scene	neutral	violation	2	A	35	1	1.1616088352166116
327.98693571193144	3.0	feedback	n/a	n/a	n/a	n/a	n/a	n/a	n/a
331.4868536149152	2.5	scene	neutral	violation	2	A	21	1	0.7857023430988193
333.9868536149152	3.0	feedback	n/a	n/a	n/a	n/a	n/a	n/a	n/a
337.48677123989916	2.5	scene	neutral	violation	2	A	9	0	0.9097723551094532
339.98677123989916	3.0	feedback	n/a	n/a	n/a	n/a	n/a	n/a	n/a
343.48669402720407	2.5	scene	neutral	nonviolation	2	A	75	1	1.0758503368124366
345.98669402720407	3.0	feedback	n/a	n/a	n/a	n/a	n/a	n/a	n/a
349.4911424200982	2.5	scene	reward	violation	2	A	48	1	0.8184067909605801
351.9911424200982	3.0	feedback	n/a	n/a	n/a	n/a	n/a	n/a	n/a
355.4907203488983	2.5	scene	neutral	nonviolation	2	A	56	1	0.7578374440781772
357.9907203488983	3.0	feedback	n/a	n/a	n/a	n/a	n/a	n/a	n/a
361.48645204212517	2.5	scene	reward	violation	2	A	36	0	0.7330189347267151
363.98645204212517	3.0	feedback	n/a	n/a	n/a	n/a	n/a	n/a	n/a
367.49019480124116	2.5	scene	neutral	nonviolation	2	A	65	1	1.0733589758165178
369.99019480124116	3.0	feedback	n/a	n/a	n/a	n/a	n/a	n/a	n/a
373.486290700268	2.5	scene	reward	nonviolation	2	A	87	1	0.8012649095617235
375.986290700268	3.0	feedback	n/a	n/a	n/a	n/a	n/a	n/a	n/a
379.4862127392553	2.5	scene	reward	nonviolation	2	A	79	1	1.459351358935237
381.9862127392553	3.0	feedback	n/a	n/a	n/a	n/a	n/a	n/a	n/a
385.48613250209024	2.5	scene	reward	violation	2	A	34	1	0.6804299391806126
387.98613250209024	3.0	feedback	n/a	n/a	n/a	n/a	n/a	n/a	n/a
391.48605237901216	2.5	scene	reward	violation	2	A	26	1	0.7755026072263718
393.98605237901216	3.0	feedback	n/a	n/a	n/a	n/a	n/a	n/a	n/a
397.48933735815814	2.5	scene	reward	violation	2	A	28	1	0.9172234339639544
399.98933735815814	3.0	feedback	n/a	n/a	n/a	n/a	n/a	n/a	n/a
403.48589488817385	2.5	scene	reward	violation	2	A	22	1	1.0226650899276135
405.98589488817385	3.0	feedback	n/a	n/a	n/a	n/a	n/a	n/a	n/a
409.4858151432127	2.5	scene	reward	violation	2	A	7	1	0.6617469717748463
411.9858151432127	3.0	feedback	n/a	n/a	n/a	n/a	n/a	n/a	n/a
415.487777445931	2.5	scene	reward	nonviolation	2	A	62	1	0.7607880933210254
417.987777445931	3.0	feedback	n/a	n/a	n/a	n/a	n/a	n/a	n/a
421.4856537180021	2.5	scene	neutral	nonviolation	2	A	92	1	0.817914335988462
423.9856537180021	3.0	feedback	n/a	n/a	n/a	n/a	n/a	n/a	n/a
427.48557385196915	2.5	scene	reward	violation	2	A	47	1	0.8719959352165461
429.98557385196915	3.0	feedback	n/a	n/a	n/a	n/a	n/a	n/a	n/a
433.485493759159	2.5	scene	reward	nonviolation	2	A	93	1	0.7310645319521427
435.985493759159	3.0	feedback	n/a	n/a	n/a	n/a	n/a	n/a	n/a
439.4854188682512	2.5	scene	neutral	nonviolation	2	A	80	0	1.1691450607031584
441.9854188682512	3.0	feedback	n/a	n/a	n/a	n/a	n/a	n/a	n/a
445.4865860831924	2.5	scene	neutral	violation	2	A	44	1	1.2999755758792162
447.9865860831924	3.0	feedback	n/a	n/a	n/a	n/a	n/a	n/a	n/a
451.4853229490108	2.5	scene	neutral	nonviolation	2	A	66	1	1.1062451559118929
453.9853229490108	3.0	feedback	n/a	n/a	n/a	n/a	n/a	n/a	n/a
457.48584936186666	2.5	scene	reward	nonviolation	2	A	83	1	0.7387159583158791
459.98584936186666	3.0	feedback	n/a	n/a	n/a	n/a	n/a	n/a	n/a
463.48509484203527	2.5	scene	neutral	nonviolation	2	A	89	1	1.0104673472233117
465.98509484203527	3.0	feedback	n/a	n/a	n/a	n/a	n/a	n/a	n/a
469.4850155781023	2.5	scene	neutral	nonviolation	2	A	55	1	0.8605540138669312
471.9850155781023	3.0	feedback	n/a	n/a	n/a	n/a	n/a	n/a	n/a
475.48493522917846	2.5	scene	reward	nonviolation	2	A	59	1	0.8746298616752028
477.98493522917846	3.0	feedback	n/a	n/a	n/a	n/a	n/a	n/a	n/a
481.48497077217326	2.5	scene	reward	violation	2	A	13	1	0.737599995918572
483.98497077217326	3.0	feedback	n/a	n/a	n/a	n/a	n/a	n/a	n/a
487.48477278091	2.5	scene	neutral	violation	2	A	46	1	0.9948231112211944
489.98477278091	3.0	feedback	n/a	n/a	n/a	n/a	n/a	n/a	n/a
493.4846947551705	2.5	scene	neutral	violation	2	A	38	1	1.3078761668875811
495.9846947551705	3.0	feedback	n/a	n/a	n/a	n/a	n/a	n/a	n/a
499.4846154828556	2.5	scene	reward	nonviolation	2	A	54	1	1.6249558799900117
501.9846154828556	3.0	feedback	n/a	n/a	n/a	n/a	n/a	n/a	n/a
505.48454161826515	2.5	scene	neutral	violation	2	A	29	1	1.0780296879820526
507.98454161826515	3.0	feedback	n/a	n/a	n/a	n/a	n/a	n/a	n/a
511.4844568902626	2.5	scene	neutral	violation	2	A	25	1	1.2660315139219165
513.9844568902627	3.0	feedback	n/a	n/a	n/a	n/a	n/a	n/a	n/a
517.4843770018779	2.5	scene	reward	nonviolation	2	A	95	1	1.3931934479624033
519.9843770018779	3.0	feedback	n/a	n/a	n/a	n/a	n/a	n/a	n/a
523.484298361931	2.5	scene	reward	violation	2	A	5	1	0.9312745099887252
525.984298361931	3.0	feedback	n/a	n/a	n/a	n/a	n/a	n/a	n/a
529.4842182812281	2.5	scene	neutral	violation	2	A	1	0	1.3424242339096963
531.9842182812281	3.0	feedback	n/a	n/a	n/a	n/a	n/a	n/a	n/a
535.4841369069181	2.5	scene	reward	nonviolation	2	A	53	1	0.8264324571937323
537.9841369069181	3.0	feedback	n/a	n/a	n/a	n/a	n/a	n/a	n/a
541.4840590259993	2.5	scene	neutral	nonviolation	2	A	88	1	0.8315306250005959
543.9840590259993	3.0	feedback	n/a	n/a	n/a	n/a	n/a	n/a	n/a
547.4839785490185	2.5	scene	neutral	violation	2	A	23	1	0.9945981311611832
549.9839785490185	3.0	feedback	n/a	n/a	n/a	n/a	n/a	n/a	n/a
553.4839009968564	2.5	scene	neutral	violation	2	A	8	1	1.3726702122949064
555.9839009968564	3.0	feedback	n/a	n/a	n/a	n/a	n/a	n/a	n/a
559.4838219429366	2.5	scene	reward	violation	2	A	19	1	0.692750777117908
561.9838219429366	3.0	feedback	n/a	n/a	n/a	n/a	n/a	n/a	n/a
565.4837422878481	2.5	scene	neutral	nonviolation	2	A	57	0	1.799850928131491
567.9837422878481	3.0	feedback	n/a	n/a	n/a	n/a	n/a	n/a	n/a
571.4836616059765	2.5	scene	reward	nonviolation	2	A	69	1	0.9339205049909652
573.9836616059765	3.0	feedback	n/a	n/a	n/a	n/a	n/a	n/a	n/a
577.4835848631337	2.5	scene	reward	violation	2	A	11	1	0.9009211556985974
579.9835848631337	3.0	feedback	n/a	n/a	n/a	n/a	n/a	n/a	n/a
583.4835043209605	2.5	scene	neutral	nonviolation	2	A	84	1	0.86707669403404
585.9835043209605	3.0	feedback	n/a	n/a	n/a	n/a	n/a	n/a	n/a
