onset	duration	trial_type	reward_condition	condition	repetition	pairmate	pairID	response_accuracy	response_time
13.51874808606226	2.5	scene	reward	nonviolation	1	A	74	0	0.9799983029952272
16.01874808606226	3.0	feedback	n/a	n/a	n/a	n/a	n/a	n/a	n/a
19.502004409092482	2.5	scene	neutral	nonviolation	1	A	85	1	1.164739267900586
22.00200440909248	3.0	feedback	n/a	n/a	n/a	n/a	n/a	n/a	n/a
25.50192517507821	2.5	scene	reward	nonviolation	1	A	79	1	0.9188224059762432
28.00192517507821	3.0	feedback	n/a	n/a	n/a	n/a	n/a	n/a	n/a
31.501846602070145	2.5	scene	reward	violation	1	A	40	1	0.9459176820237191
34.001846602070145	3.0	feedback	n/a	n/a	n/a	n/a	n/a	n/a	n/a
37.5017748971004	2.5	scene	neutral	nonviolation	1	A	96	1	0.8099891899619251
40.0017748971004	3.0	feedback	n/a	n/a	n/a	n/a	n/a	n/a	n/a
43.50168460106943	2.5	scene	neutral	violation	1	A	28	1	0.7070428589358926
46.00168460106943	3.0	feedback	n/a	n/a	n/a	n/a	n/a	n/a	n/a
49.501609011087574	2.5	scene	reward	nonviolation	1	A	52	1	0.703134000999853
52.001609011087574	3.0	feedback	n/a	n/a	n/a	n/a	n/a	n/a	n/a
55.50152835808694	2.5	scene	reward	violation	1	A	33	1	0.9512221079785376
58.00152835808694	3.0	feedback	n/a	n/a	n/a	n/a	n/a	n/a	n/a
61.506248363060884	2.5	scene	neutral	violation	1	A	19	1	0.7695007090223953
64.00624836306089	3.0	feedback	n/a	n/a	n/a	n/a	n/a	n/a	n/a
67.50138099305332	2.5	scene	neutral	nonviolation	1	A	55	1	0.7592942130286247
70.00138099305332	3.0	feedback	n/a	n/a	n/a	n/a	n/a	n/a	n/a
73.50128993508406	2.5	scene	neutral	violation	1	A	45	1	0.7304519469616935
76.00128993508406	3.0	feedback	n/a	n/a	n/a	n/a	n/a	n/a	n/a
79.50480059301479	2.5	scene	reward	nonviolation	1	A	91	1	0.8519492760533467
82.00480059301479	3.0	feedback	n/a	n/a	n/a	n/a	n/a	n/a	n/a
85.50531987100841	2.5	scene	reward	violation	1	A	4	1	0.8194301900221035
88.00531987100841	3.0	feedback	n/a	n/a	n/a	n/a	n/a	n/a	n/a
91.50583912304137	2.5	scene	reward	nonviolation	1	A	59	1	0.8429008920211345
94.00583912304137	3.0	feedback	n/a	n/a	n/a	n/a	n/a	n/a	n/a
97.50096189102624	2.5	scene	neutral	nonviolation	1	A	68	1	0.8657889680471271
100.00096189102624	3.0	feedback	n/a	n/a	n/a	n/a	n/a	n/a	n/a
103.50353895605076	2.5	scene	reward	nonviolation	1	A	84	1	0.8252146459417418
106.00353895605076	3.0	feedback	n/a	n/a	n/a	n/a	n/a	n/a	n/a
109.50434441806284	2.5	scene	reward	violation	1	A	8	0	1.1124128130031752
112.00434441806284	3.0	feedback	n/a	n/a	n/a	n/a	n/a	n/a	n/a
115.5038762569893	2.5	scene	neutral	violation	1	A	35	1	1.2779155510943383
118.0038762569893	3.0	feedback	n/a	n/a	n/a	n/a	n/a	n/a	n/a
121.50360625109171	2.5	scene	reward	nonviolation	1	A	58	1	0.8171521389158443
124.00360625109171	3.0	feedback	n/a	n/a	n/a	n/a	n/a	n/a	n/a
127.5034187240526	2.5	scene	reward	nonviolation	1	A	54	0	0.9143394910497592
130.0034187240526	3.0	feedback	n/a	n/a	n/a	n/a	n/a	n/a	n/a
133.50293205899652	2.5	scene	reward	violation	1	A	41	1	0.7828254930209368
136.00293205899652	3.0	feedback	n/a	n/a	n/a	n/a	n/a	n/a	n/a
139.50143846904393	2.5	scene	reward	violation	1	A	17	0	0.8133149920031428
142.0014384690439	3.0	feedback	n/a	n/a	n/a	n/a	n/a	n/a	n/a
145.50218365108594	2.5	scene	reward	nonviolation	1	A	89	0	0.922491584904492
148.00218365108594	3.0	feedback	n/a	n/a	n/a	n/a	n/a	n/a	n/a
151.50270460010506	2.5	scene	reward	violation	1	A	47	0	0.7290322339395061
154.00270460010506	3.0	feedback	n/a	n/a	n/a	n/a	n/a	n/a	n/a
157.50173315603755	2.5	scene	reward	nonviolation	1	A	67	1	0.903025644016452
160.00173315603755	3.0	feedback	n/a	n/a	n/a	n/a	n/a	n/a	n/a
163.50125137006398	2.5	scene	neutral	violation	1	A	13	1	0.9085095289628952
166.00125137006398	3.0	feedback	n/a	n/a	n/a	n/a	n/a	n/a	n/a
169.50076541909945	2.5	scene	reward	violation	1	A	24	0	1.1029993169941008
172.00076541909945	3.0	feedback	n/a	n/a	n/a	n/a	n/a	n/a	n/a
175.50127677700948	2.5	scene	neutral	violation	1	A	15	1	0.7554845140548423
178.00127677700948	3.0	feedback	n/a	n/a	n/a	n/a	n/a	n/a	n/a
181.49985955306332	2.5	scene	reward	violation	1	A	12	1	1.0599015150219202
183.99985955306332	3.0	feedback	n/a	n/a	n/a	n/a	n/a	n/a	n/a
187.50031330401544	2.5	scene	neutral	nonviolation	1	A	80	1	0.8294518149923533
190.00031330401544	3.0	feedback	n/a	n/a	n/a	n/a	n/a	n/a	n/a
193.49983381701168	2.5	scene	neutral	violation	1	A	43	1	1.142932675080374
195.99983381701168	3.0	feedback	n/a	n/a	n/a	n/a	n/a	n/a	n/a
199.4996274480364	2.5	scene	neutral	violation	1	A	2	0	1.0221345160389321
201.9996274480364	3.0	feedback	n/a	n/a	n/a	n/a	n/a	n/a	n/a
205.49954156705644	2.5	scene	neutral	violation	1	A	31	1	1.01822455401998
207.99954156705644	3.0	feedback	n/a	n/a	n/a	n/a	n/a	n/a	n/a
211.49946201208516	2.5	scene	neutral	nonviolation	1	A	60	1	1.07030430494342
213.99946201208516	3.0	feedback	n/a	n/a	n/a	n/a	n/a	n/a	n/a
217.4993832970504	2.5	scene	neutral	nonviolation	1	A	77	1	1.09138992393855
219.9993832970504	3.0	feedback	n/a	n/a	n/a	n/a	n/a	n/a	n/a
223.4993037499953	2.5	scene	reward	nonviolation	1	A	81	0	0.8474690710427241
225.9993037499953	3.0	feedback	n/a	n/a	n/a	n/a	n/a	n/a	n/a
229.4992302180035	2.5	scene	reward	violation	1	A	30	0	1.1125365380430594
231.9992302180035	3.0	feedback	n/a	n/a	n/a	n/a	n/a	n/a	n/a
235.4991510260152	2.5	scene	reward	nonviolation	1	A	70	1	0.8966187320183963
237.9991510260152	3.0	feedback	n/a	n/a	n/a	n/a	n/a	n/a	n/a
241.49907186708882	2.5	scene	neutral	violation	1	A	5	1	1.022701772977598
243.99907186708882	3.0	feedback	n/a	n/a	n/a	n/a	n/a	n/a	n/a
247.4989943300607	2.5	scene	neutral	nonviolation	1	A	66	1	0.8427745719673112
249.9989943300607	3.0	feedback	n/a	n/a	n/a	n/a	n/a	n/a	n/a
253.49890626908746	2.5	scene	neutral	nonviolation	1	A	50	0	1.3818636139621958
255.99890626908746	3.0	feedback	n/a	n/a	n/a	n/a	n/a	n/a	n/a
259.498836364015	2.5	scene	neutral	violation	1	A	20	1	1.1269376870477572
261.998836364015	3.0	feedback	n/a	n/a	n/a	n/a	n/a	n/a	n/a
265.4987553380197	2.5	scene	neutral	violation	1	A	39	1	0.7710239060688764
267.9987553380197	3.0	feedback	n/a	n/a	n/a	n/a	n/a	n/a	n/a
271.498670826084	2.5	scene	neutral	nonviolation	1	A	92	1	0.8521031009731814
273.998670826084	3.0	feedback	n/a	n/a	n/a	n/a	n/a	n/a	n/a
277.49859133607237	2.5	scene	neutral	nonviolation	1	A	83	1	0.9281888909172268
279.99859133607237	3.0	feedback	n/a	n/a	n/a	n/a	n/a	n/a	n/a
283.4985233850312	2.5	scene	neutral	nonviolation	1	A	61	1	0.9052553459769116
285.9985233850312	3.0	feedback	n/a	n/a	n/a	n/a	n/a	n/a	n/a
289.4984319260111	2.5	scene	reward	violation	1	A	29	0	0.9843438160605728
291.9984319260111	3.0	feedback	n/a	n/a	n/a	n/a	n/a	n/a	n/a
295.4983600550331	2.5	scene	reward	violation	1	A	16	1	0.7013875920092687
297.9983600550331	3.0	feedback	n/a	n/a	n/a	n/a	n/a	n/a	n/a
301.498275490012	2.5	scene	neutral	violation	2	A	20	1	1.2444988649804145
303.998275490012	3.0	feedback	n/a	n/a	n/a	n/a	n/a	n/a	n/a
307.4982041240437	2.5	scene	reward	violation	2	A	24	1	0.7404922760324553
309.9982041240437	3.0	feedback	n/a	n/a	n/a	n/a	n/a	n/a	n/a
313.49812243808987	2.5	scene	reward	nonviolation	2	A	89	1	0.8606563659850508
315.99812243808987	3.0	feedback	n/a	n/a	n/a	n/a	n/a	n/a	n/a
319.4980447780108	2.5	scene	reward	nonviolation	2	A	70	1	0.7177342610666528
321.9980447780108	3.0	feedback	n/a	n/a	n/a	n/a	n/a	n/a	n/a
325.49795752204955	2.5	scene	neutral	violation	2	A	28	1	1.080825467943214
327.99795752204955	3.0	feedback	n/a	n/a	n/a	n/a	n/a	n/a	n/a
331.4978783110855	2.5	scene	reward	violation	2	A	40	1	0.8829063599696383
333.9978783110855	3.0	feedback	n/a	n/a	n/a	n/a	n/a	n/a	n/a
337.49779887101613	2.5	scene	reward	nonviolation	2	A	81	1	1.1819881950505078
339.99779887101613	3.0	feedback	n/a	n/a	n/a	n/a	n/a	n/a	n/a
343.4977251960663	2.5	scene	neutral	nonviolation	2	A	50	1	1.0320567439775914
345.9977251960663	3.0	feedback	n/a	n/a	n/a	n/a	n/a	n/a	n/a
349.4976467411034	2.5	scene	reward	nonviolation	2	A	59	1	0.7831412269733846
351.9976467411034	3.0	feedback	n/a	n/a	n/a	n/a	n/a	n/a	n/a
355.49757133203093	2.5	scene	neutral	violation	2	A	2	1	0.8692193069728091
357.99757133203093	3.0	feedback	n/a	n/a	n/a	n/a	n/a	n/a	n/a
361.4974827500992	2.5	scene	neutral	violation	2	A	43	1	1.0633068419992924
363.9974827500992	3.0	feedback	n/a	n/a	n/a	n/a	n/a	n/a	n/a
367.49740412004763	2.5	scene	reward	violation	2	A	33	1	0.6433847059961408
369.99740412004763	3.0	feedback	n/a	n/a	n/a	n/a	n/a	n/a	n/a
373.4973326980835	2.5	scene	neutral	nonviolation	2	A	68	1	0.8113969539990649
375.9973326980835	3.0	feedback	n/a	n/a	n/a	n/a	n/a	n/a	n/a
379.4972442180151	2.5	scene	reward	violation	2	A	29	1	0.7485426199855283
381.9972442180151	3.0	feedback	n/a	n/a	n/a	n/a	n/a	n/a	n/a
385.49717181106104	2.5	scene	reward	violation	2	A	4	1	0.7286131159635261
387.99717181106104	3.0	feedback	n/a	n/a	n/a	n/a	n/a	n/a	n/a
391.49709201906813	2.5	scene	reward	nonviolation	2	A	58	1	0.6256943589542061
393.99709201906813	3.0	feedback	n/a	n/a	n/a	n/a	n/a	n/a	n/a
397.4970077470643	2.5	scene	reward	nonviolation	2	A	67	1	0.7897804860258475
399.9970077470643	3.0	feedback	n/a	n/a	n/a	n/a	n/a	n/a	n/a
403.4969362000702	2.5	scene	reward	nonviolation	2	A	52	1	0.908854444976896
405.9969362000702	3.0	feedback	n/a	n/a	n/a	n/a	n/a	n/a	n/a
409.4801861970918	2.5	scene	reward	violation	2	A	47	1	0.9656072799116372
411.9801861970918	3.0	feedback	n/a	n/a	n/a	n/a	n/a	n/a	n/a
415.4967698720283	2.5	scene	neutral	violation	2	A	15	1	0.9220226850593464
417.9967698720283	3.0	feedback	n/a	n/a	n/a	n/a	n/a	n/a	n/a
421.48002689203713	2.5	scene	neutral	nonviolation	2	A	80	1	0.90576570504345
423.98002689203713	3.0	feedback	n/a	n/a	n/a	n/a	n/a	n/a	n/a
427.496618768084	2.5	scene	neutral	violation	2	A	5	1	1.0991816939786077
429.996618768084	3.0	feedback	n/a	n/a	n/a	n/a	n/a	n/a	n/a
433.47986700304324	2.5	scene	reward	nonviolation	2	A	74	1	1.1989268449833617
435.97986700304324	3.0	feedback	n/a	n/a	n/a	n/a	n/a	n/a	n/a
439.4798210470472	2.5	scene	neutral	violation	2	A	19	1	0.7709764740429819
441.9798210470472	3.0	feedback	n/a	n/a	n/a	n/a	n/a	n/a	n/a
445.47970968007576	2.5	scene	neutral	nonviolation	2	A	61	1	0.910088702919893
447.97970968007576	3.0	feedback	n/a	n/a	n/a	n/a	n/a	n/a	n/a
451.47963022603653	2.5	scene	neutral	violation	2	A	31	1	0.824165708036162
453.97963022603653	3.0	feedback	n/a	n/a	n/a	n/a	n/a	n/a	n/a
457.47955084906425	2.5	scene	neutral	nonviolation	2	A	66	1	0.8242453569546342
459.97955084906425	3.0	feedback	n/a	n/a	n/a	n/a	n/a	n/a	n/a
463.4794665049994	2.5	scene	neutral	nonviolation	2	A	77	1	0.9073285670019686
465.9794665049994	3.0	feedback	n/a	n/a	n/a	n/a	n/a	n/a	n/a
469.4793949320447	2.5	scene	reward	nonviolation	2	A	84	1	0.796407102025114
471.9793949320447	3.0	feedback	n/a	n/a	n/a	n/a	n/a	n/a	n/a
475.47931632306427	2.5	scene	neutral	nonviolation	2	A	55	1	0.8624833789654076
477.97931632306427	3.0	feedback	n/a	n/a	n/a	n/a	n/a	n/a	n/a
481.4792351810029	2.5	scene	reward	violation	2	A	41	1	0.8185711900005117
483.9792351810029	3.0	feedback	n/a	n/a	n/a	n/a	n/a	n/a	n/a
487.47916598198935	2.5	scene	neutral	nonviolation	2	A	83	1	0.7836368660209699
489.97916598198935	3.0	feedback	n/a	n/a	n/a	n/a	n/a	n/a	n/a
493.4838236760115	2.5	scene	reward	nonviolation	2	A	79	1	0.8759750600438565
495.9838236760115	3.0	feedback	n/a	n/a	n/a	n/a	n/a	n/a	n/a
499.47899572807364	2.5	scene	neutral	violation	2	A	45	1	0.989812482963316
501.97899572807364	3.0	feedback	n/a	n/a	n/a	n/a	n/a	n/a	n/a
505.4789199300576	2.5	scene	neutral	violation	2	A	35	1	0.9408849460305646
507.9789199300576	3.0	feedback	n/a	n/a	n/a	n/a	n/a	n/a	n/a
511.4831169270911	2.5	scene	neutral	violation	2	A	13	1	0.9156896719941868
513.983116927091	3.0	feedback	n/a	n/a	n/a	n/a	n/a	n/a	n/a
517.4829204420092	2.5	scene	neutral	nonviolation	2	A	60	1	0.8538966650376096
519.9829204420092	3.0	feedback	n/a	n/a	n/a	n/a	n/a	n/a	n/a
523.4834433440118	2.5	scene	neutral	nonviolation	2	A	96	1	0.9243661400396376
525.9834433440118	3.0	feedback	n/a	n/a	n/a	n/a	n/a	n/a	n/a
529.4819516791031	2.5	scene	reward	violation	2	A	30	1	0.9578259319532664
531.9819516791031	3.0	feedback	n/a	n/a	n/a	n/a	n/a	n/a	n/a
535.4824688080698	2.5	scene	reward	violation	2	A	12	1	1.1413433229317889
537.9824688080698	3.0	feedback	n/a	n/a	n/a	n/a	n/a	n/a	n/a
541.481984268059	2.5	scene	reward	nonviolation	2	A	54	0	0.9168253450188786
543.981984268059	3.0	feedback	n/a	n/a	n/a	n/a	n/a	n/a	n/a
547.4815053800121	2.5	scene	neutral	nonviolation	2	A	92	1	1.1363051420776171
549.9815053800121	3.0	feedback	n/a	n/a	n/a	n/a	n/a	n/a	n/a
553.4820228610188	2.5	scene	neutral	violation	2	A	39	1	1.3817873999942094
555.9820228610188	3.0	feedback	n/a	n/a	n/a	n/a	n/a	n/a	n/a
559.4815471400507	2.5	scene	reward	violation	2	A	17	1	1.0872669169912117
561.9815471400507	3.0	feedback	n/a	n/a	n/a	n/a	n/a	n/a	n/a
565.4800612370017	2.5	scene	neutral	nonviolation	2	A	85	1	0.9967491360148416
567.9800612370017	3.0	feedback	n/a	n/a	n/a	n/a	n/a	n/a	n/a
571.4780559050852	2.5	scene	reward	violation	2	A	8	1	0.8058090709382668
573.9780559050852	3.0	feedback	n/a	n/a	n/a	n/a	n/a	n/a	n/a
577.4802526939893	2.5	scene	reward	violation	2	A	16	1	0.7205622580368072
579.9802526939893	3.0	feedback	n/a	n/a	n/a	n/a	n/a	n/a	n/a
583.4797695550368	2.5	scene	reward	nonviolation	2	A	91	1	0.9470479970332236
585.9797695550368	3.0	feedback	n/a	n/a	n/a	n/a	n/a	n/a	n/a
