onset	duration	trial_type	reward_condition	condition	repetition	pairmate	pairID	response_accuracy	response_time
13.500039611943064	2.5	scene	reward	violation	1	A	44	1	0.8370535240974277
16.000039611943063	3.0	feedback	n/a	n/a	n/a	n/a	n/a	n/a	n/a
19.49996269401163	2.5	scene	neutral	violation	1	A	40	1	0.7611366829369217
21.999962694011632	3.0	feedback	n/a	n/a	n/a	n/a	n/a	n/a	n/a
25.499888502992693	2.5	scene	reward	violation	1	A	14	1	0.6761245219968259
27.999888502992693	3.0	feedback	n/a	n/a	n/a	n/a	n/a	n/a	n/a
31.49981282488443	2.5	scene	neutral	nonviolation	1	A	91	1	0.6672871920745821
33.99981282488443	3.0	feedback	n/a	n/a	n/a	n/a	n/a	n/a	n/a
37.499738252954565	2.5	scene	neutral	violation	1	A	18	1	0.8103536469861865
39.999738252954565	3.0	feedback	n/a	n/a	n/a	n/a	n/a	n/a	n/a
43.50432040286249	2.5	scene	neutral	violation	1	A	13	1	0.5967738979961723
46.004320402862504	3.0	feedback	n/a	n/a	n/a	n/a	n/a	n/a	n/a
49.49958296795376	2.5	scene	neutral	nonviolation	1	A	90	1	0.6595110199414194
51.99958296795376	3.0	feedback	n/a	n/a	n/a	n/a	n/a	n/a	n/a
55.5033528120257	2.5	scene	neutral	violation	1	A	2	1	0.7947378049138933
58.0033528120257	3.0	feedback	n/a	n/a	n/a	n/a	n/a	n/a	n/a
61.503867120016366	2.5	scene	neutral	violation	1	A	41	1	0.6582313668914139
64.00386712001637	3.0	feedback	n/a	n/a	n/a	n/a	n/a	n/a	n/a
67.50366556993686	2.5	scene	reward	violation	1	A	8	1	1.0104399819392709
70.00366556993686	3.0	feedback	n/a	n/a	n/a	n/a	n/a	n/a	n/a
73.50369118805975	2.5	scene	neutral	nonviolation	1	A	69	1	0.8844035959336907
76.00369118805975	3.0	feedback	n/a	n/a	n/a	n/a	n/a	n/a	n/a
79.5029930169694	2.5	scene	reward	violation	1	A	21	0	0.92911123088561
82.0029930169694	3.0	feedback	n/a	n/a	n/a	n/a	n/a	n/a	n/a
85.50251507596113	2.5	scene	reward	nonviolation	1	A	78	1	1.10858498304151
88.00251507596113	3.0	feedback	n/a	n/a	n/a	n/a	n/a	n/a	n/a
91.50303096184507	2.5	scene	neutral	violation	1	A	38	1	0.8390772631391883
94.00303096184507	3.0	feedback	n/a	n/a	n/a	n/a	n/a	n/a	n/a
97.50155693595299	2.5	scene	reward	nonviolation	1	A	58	1	0.6485466330777854
100.00155693595299	3.0	feedback	n/a	n/a	n/a	n/a	n/a	n/a	n/a
103.50186348892748	2.5	scene	neutral	violation	1	A	25	1	0.7562502950895578
106.00186348892748	3.0	feedback	n/a	n/a	n/a	n/a	n/a	n/a	n/a
109.5016011649277	2.5	scene	neutral	violation	1	A	9	1	0.7734818020835519
112.0016011649277	3.0	feedback	n/a	n/a	n/a	n/a	n/a	n/a	n/a
115.50111587601714	2.5	scene	reward	nonviolation	1	A	52	1	1.0800016620196402
118.00111587601714	3.0	feedback	n/a	n/a	n/a	n/a	n/a	n/a	n/a
121.50064191990532	2.5	scene	reward	nonviolation	1	A	84	1	0.6484584361314774
124.00064191990532	3.0	feedback	n/a	n/a	n/a	n/a	n/a	n/a	n/a
127.50093625788575	2.5	scene	neutral	nonviolation	1	A	80	1	1.719168654177338
130.00093625788577	3.0	feedback	n/a	n/a	n/a	n/a	n/a	n/a	n/a
133.49945051199757	2.5	scene	reward	violation	1	A	12	1	0.5866556048858911
135.99945051199757	3.0	feedback	n/a	n/a	n/a	n/a	n/a	n/a	n/a
139.49997662892565	2.5	scene	reward	violation	1	A	3	1	0.6891295739915222
141.99997662892562	3.0	feedback	n/a	n/a	n/a	n/a	n/a	n/a	n/a
145.49877826194282	2.5	scene	neutral	nonviolation	1	A	71	1	0.5183272820431739
147.99877826194282	3.0	feedback	n/a	n/a	n/a	n/a	n/a	n/a	n/a
151.49930438189767	2.5	scene	reward	violation	1	A	48	0	0.8238061279989779
153.99930438189767	3.0	feedback	n/a	n/a	n/a	n/a	n/a	n/a	n/a
157.49881897005253	2.5	scene	neutral	violation	1	A	6	1	0.9072923639323562
159.99881897005253	3.0	feedback	n/a	n/a	n/a	n/a	n/a	n/a	n/a
163.498333489988	2.5	scene	neutral	nonviolation	1	A	57	1	0.8897773548960686
165.998333489988	3.0	feedback	n/a	n/a	n/a	n/a	n/a	n/a	n/a
169.4988477979787	2.5	scene	reward	nonviolation	1	A	76	1	0.6932592398952693
171.9988477979787	3.0	feedback	n/a	n/a	n/a	n/a	n/a	n/a	n/a
175.49813136807643	2.5	scene	neutral	nonviolation	1	A	60	1	0.9909948278218508
177.99813136807643	3.0	feedback	n/a	n/a	n/a	n/a	n/a	n/a	n/a
181.49782453803346	2.5	scene	reward	nonviolation	1	A	95	1	0.6482900439295918
183.99782453803346	3.0	feedback	n/a	n/a	n/a	n/a	n/a	n/a	n/a
187.49792826105838	2.5	scene	reward	nonviolation	1	A	87	0	1.0581870388705283
189.99792826105838	3.0	feedback	n/a	n/a	n/a	n/a	n/a	n/a	n/a
193.49765713000667	2.5	scene	neutral	nonviolation	1	A	82	1	0.7203764340374619
195.99765713000667	3.0	feedback	n/a	n/a	n/a	n/a	n/a	n/a	n/a
199.4975836079102	2.5	scene	reward	nonviolation	1	A	49	1	0.6015281991567463
201.9975836079102	3.0	feedback	n/a	n/a	n/a	n/a	n/a	n/a	n/a
205.49749971693387	2.5	scene	reward	violation	1	A	23	1	0.6426211909856647
207.99749971693387	3.0	feedback	n/a	n/a	n/a	n/a	n/a	n/a	n/a
211.49741745786739	2.5	scene	neutral	nonviolation	1	A	54	1	1.0067008771002293
213.99741745786739	3.0	feedback	n/a	n/a	n/a	n/a	n/a	n/a	n/a
217.49734186101705	2.5	scene	reward	violation	1	A	26	1	0.633771926863119
219.99734186101705	3.0	feedback	n/a	n/a	n/a	n/a	n/a	n/a	n/a
223.4972582838964	2.5	scene	neutral	nonviolation	1	A	75	1	0.956857020035386
225.9972582838964	3.0	feedback	n/a	n/a	n/a	n/a	n/a	n/a	n/a
229.49717914196663	2.5	scene	reward	nonviolation	1	A	72	1	0.7648706119507551
231.99717914196663	3.0	feedback	n/a	n/a	n/a	n/a	n/a	n/a	n/a
235.49709905404598	2.5	scene	neutral	violation	1	A	19	1	0.7569497628137469
237.99709905404598	3.0	feedback	n/a	n/a	n/a	n/a	n/a	n/a	n/a
241.49701929301955	2.5	scene	reward	violation	1	A	30	1	0.7520975999068469
243.99701929301955	3.0	feedback	n/a	n/a	n/a	n/a	n/a	n/a	n/a
247.49694173899482	2.5	scene	neutral	violation	1	A	45	1	1.0210960670374334
249.99694173899482	3.0	feedback	n/a	n/a	n/a	n/a	n/a	n/a	n/a
253.49686195584943	2.5	scene	reward	nonviolation	1	A	65	1	0.6652587801218033
255.99686195584943	3.0	feedback	n/a	n/a	n/a	n/a	n/a	n/a	n/a
259.4967815510463	2.5	scene	neutral	nonviolation	1	A	50	1	1.0033426110167056
261.9967815510463	3.0	feedback	n/a	n/a	n/a	n/a	n/a	n/a	n/a
265.49670227686875	2.5	scene	reward	nonviolation	1	A	96	1	0.6213347790762782
267.99670227686875	3.0	feedback	n/a	n/a	n/a	n/a	n/a	n/a	n/a
271.49662876501685	2.5	scene	neutral	nonviolation	1	A	88	1	0.6814913658890873
273.99662876501685	3.0	feedback	n/a	n/a	n/a	n/a	n/a	n/a	n/a
277.4965481730178	2.5	scene	reward	nonviolation	1	A	63	1	0.6835764339193702
279.9965481730178	3.0	feedback	n/a	n/a	n/a	n/a	n/a	n/a	n/a
283.49646397889586	2.5	scene	neutral	violation	1	A	27	1	0.6376642321702093
285.99646397889586	3.0	feedback	n/a	n/a	n/a	n/a	n/a	n/a	n/a
289.49638398294337	2.5	scene	reward	violation	1	A	39	0	1.0917121649254111
291.99638398294337	3.0	feedback	n/a	n/a	n/a	n/a	n/a	n/a	n/a
295.4963047420606	2.5	scene	reward	violation	1	A	36	1	0.6808195379562676
297.9963047420606	3.0	feedback	n/a	n/a	n/a	n/a	n/a	n/a	n/a
301.4962341738865	2.5	scene	reward	nonviolation	2	A	84	1	0.6598930831532925
303.9962341738865	3.0	feedback	n/a	n/a	n/a	n/a	n/a	n/a	n/a
307.49614607286634	2.5	scene	reward	violation	2	A	14	1	0.6169824751559645
309.99614607286634	3.0	feedback	n/a	n/a	n/a	n/a	n/a	n/a	n/a
313.496069741901	2.5	scene	neutral	nonviolation	2	A	54	1	0.6360552930273116
315.996069741901	3.0	feedback	n/a	n/a	n/a	n/a	n/a	n/a	n/a
319.4959889058955	2.5	scene	reward	violation	2	A	36	1	0.5391412479802966
321.9959889058955	3.0	feedback	n/a	n/a	n/a	n/a	n/a	n/a	n/a
325.49591651698574	2.5	scene	reward	violation	2	A	30	1	0.7882206740323454
327.99591651698574	3.0	feedback	n/a	n/a	n/a	n/a	n/a	n/a	n/a
331.49582883389667	2.5	scene	neutral	nonviolation	2	A	71	1	0.5943030710332096
333.99582883389667	3.0	feedback	n/a	n/a	n/a	n/a	n/a	n/a	n/a
337.4957556959708	2.5	scene	neutral	violation	2	A	45	1	0.630377491004765
339.9957556959708	3.0	feedback	n/a	n/a	n/a	n/a	n/a	n/a	n/a
343.4956676820293	2.5	scene	reward	nonviolation	2	A	87	1	0.6154599769506603
345.99566768202936	3.0	feedback	n/a	n/a	n/a	n/a	n/a	n/a	n/a
349.49559719301766	2.5	scene	reward	nonviolation	2	A	78	1	0.6035311268642545
351.99559719301766	3.0	feedback	n/a	n/a	n/a	n/a	n/a	n/a	n/a
355.49551577307284	2.5	scene	neutral	violation	2	A	19	1	0.5786188519559801
357.99551577307284	3.0	feedback	n/a	n/a	n/a	n/a	n/a	n/a	n/a
361.49543014587834	2.5	scene	neutral	nonviolation	2	A	91	1	0.5577041620854288
363.99543014587834	3.0	feedback	n/a	n/a	n/a	n/a	n/a	n/a	n/a
367.4953547560144	2.5	scene	reward	nonviolation	2	A	58	1	0.601782307960093
369.9953547560144	3.0	feedback	n/a	n/a	n/a	n/a	n/a	n/a	n/a
373.4952765998896	2.5	scene	neutral	nonviolation	2	A	57	1	1.2968609801027924
375.9952765998896	3.0	feedback	n/a	n/a	n/a	n/a	n/a	n/a	n/a
379.49519722303376	2.5	scene	reward	violation	2	A	3	1	0.6379378109704703
381.99519722303376	3.0	feedback	n/a	n/a	n/a	n/a	n/a	n/a	n/a
385.49511892185546	2.5	scene	neutral	violation	2	A	27	1	0.6840158312115818
387.99511892185546	3.0	feedback	n/a	n/a	n/a	n/a	n/a	n/a	n/a
391.4783688029274	2.5	scene	neutral	nonviolation	2	A	60	1	0.5437728140968829
393.9783688029274	3.0	feedback	n/a	n/a	n/a	n/a	n/a	n/a	n/a
397.4949519999791	2.5	scene	reward	nonviolation	2	A	63	1	0.5981871099211276
399.9949519999791	3.0	feedback	n/a	n/a	n/a	n/a	n/a	n/a	n/a
403.4948800939601	2.5	scene	neutral	violation	2	A	25	1	0.7192584020085633
405.9948800939601	3.0	feedback	n/a	n/a	n/a	n/a	n/a	n/a	n/a
409.4781291109976	2.5	scene	reward	nonviolation	2	A	76	1	0.6300380630418658
411.9781291109976	3.0	feedback	n/a	n/a	n/a	n/a	n/a	n/a	n/a
415.4780506568495	2.5	scene	neutral	nonviolation	2	A	88	1	0.5250819881912321
417.9780506568495	3.0	feedback	n/a	n/a	n/a	n/a	n/a	n/a	n/a
421.47796822991216	2.5	scene	neutral	violation	2	A	2	1	0.5111755630932748
423.97796822991216	3.0	feedback	n/a	n/a	n/a	n/a	n/a	n/a	n/a
427.4778907299042	2.5	scene	neutral	nonviolation	2	A	69	1	0.7081663331482559
429.9778907299042	3.0	feedback	n/a	n/a	n/a	n/a	n/a	n/a	n/a
433.47781104291784	2.5	scene	reward	nonviolation	2	A	65	1	0.5743324039503932
435.97781104291784	3.0	feedback	n/a	n/a	n/a	n/a	n/a	n/a	n/a
439.47773297689855	2.5	scene	neutral	violation	2	A	38	1	1.0844119591638446
441.97773297689855	3.0	feedback	n/a	n/a	n/a	n/a	n/a	n/a	n/a
445.4776612869464	2.5	scene	neutral	violation	2	A	6	1	0.6374814780429006
447.9776612869464	3.0	feedback	n/a	n/a	n/a	n/a	n/a	n/a	n/a
451.4775719200261	2.5	scene	reward	violation	2	A	44	1	0.6715709909331053
453.9775719200261	3.0	feedback	n/a	n/a	n/a	n/a	n/a	n/a	n/a
457.4774995360058	2.5	scene	neutral	violation	2	A	40	1	0.6766445490065962
459.9774995360058	3.0	feedback	n/a	n/a	n/a	n/a	n/a	n/a	n/a
463.48204806889413	2.5	scene	reward	violation	2	A	26	1	0.6981052779592574
465.98204806889413	3.0	feedback	n/a	n/a	n/a	n/a	n/a	n/a	n/a
469.47739201807417	2.5	scene	neutral	violation	2	A	18	1	0.6707612189929932
471.97739201807417	3.0	feedback	n/a	n/a	n/a	n/a	n/a	n/a	n/a
475.47725202399306	2.5	scene	reward	nonviolation	2	A	49	1	0.6108935049269348
477.97725202399306	3.0	feedback	n/a	n/a	n/a	n/a	n/a	n/a	n/a
481.47718673991034	2.5	scene	reward	violation	2	A	48	1	0.5979706221260129
483.97718673991034	3.0	feedback	n/a	n/a	n/a	n/a	n/a	n/a	n/a
487.4813691210002	2.5	scene	neutral	violation	2	A	13	1	0.6067869488615543
489.9813691210002	3.0	feedback	n/a	n/a	n/a	n/a	n/a	n/a	n/a
493.4819022598677	2.5	scene	reward	violation	2	A	21	1	0.5692509110085666
495.9819022598677	3.0	feedback	n/a	n/a	n/a	n/a	n/a	n/a	n/a
499.48140263487596	2.5	scene	neutral	violation	2	A	41	1	0.6307465361896902
501.98140263487596	3.0	feedback	n/a	n/a	n/a	n/a	n/a	n/a	n/a
505.480928221019	2.5	scene	reward	nonviolation	2	A	95	1	0.611146411858499
507.980928221019	3.0	feedback	n/a	n/a	n/a	n/a	n/a	n/a	n/a
511.4806590669323	2.5	scene	neutral	nonviolation	2	A	80	1	0.5834700679406524
513.9806590669323	3.0	feedback	n/a	n/a	n/a	n/a	n/a	n/a	n/a
517.4814006399829	2.5	scene	reward	nonviolation	2	A	72	1	0.5907522670459002
519.9814006399829	3.0	feedback	n/a	n/a	n/a	n/a	n/a	n/a	n/a
523.4799279598518	2.5	scene	neutral	violation	2	A	9	1	0.5592283671721816
525.9799279598518	3.0	feedback	n/a	n/a	n/a	n/a	n/a	n/a	n/a
529.479656615993	2.5	scene	neutral	nonviolation	2	A	50	1	0.641504508908838
531.979656615993	3.0	feedback	n/a	n/a	n/a	n/a	n/a	n/a	n/a
535.480190644972	2.5	scene	reward	violation	2	A	8	1	0.5989683950319886
537.980190644972	3.0	feedback	n/a	n/a	n/a	n/a	n/a	n/a	n/a
541.4786925630178	2.5	scene	reward	nonviolation	2	A	96	1	0.5864642120432109
543.9786925630178	3.0	feedback	n/a	n/a	n/a	n/a	n/a	n/a	n/a
547.4782240539789	2.5	scene	neutral	nonviolation	2	A	90	1	0.5259399579372257
549.9782240539789	3.0	feedback	n/a	n/a	n/a	n/a	n/a	n/a	n/a
553.4787487369032	2.5	scene	reward	violation	2	A	12	1	0.5554145341739058
555.9787487369032	3.0	feedback	n/a	n/a	n/a	n/a	n/a	n/a	n/a
559.4782766909339	2.5	scene	neutral	nonviolation	2	A	82	1	0.6008833299856633
561.9782766909339	3.0	feedback	n/a	n/a	n/a	n/a	n/a	n/a	n/a
565.477803084068	2.5	scene	reward	nonviolation	2	A	52	1	0.8863602639175951
567.977803084068	3.0	feedback	n/a	n/a	n/a	n/a	n/a	n/a	n/a
571.4773311859462	2.5	scene	neutral	nonviolation	2	A	75	1	0.5368282310664654
573.9773311859462	3.0	feedback	n/a	n/a	n/a	n/a	n/a	n/a	n/a
577.4778492450714	2.5	scene	reward	violation	2	A	39	1	0.7973126859869808
579.9778492450714	3.0	feedback	n/a	n/a	n/a	n/a	n/a	n/a	n/a
583.4758219078649	2.5	scene	reward	violation	2	A	23	1	0.670256172074005
585.9758219078649	3.0	feedback	n/a	n/a	n/a	n/a	n/a	n/a	n/a
