onset	duration	trial_type	reward_condition	condition	repetition	pairmate	pairID	response_accuracy	response_time
13.514230382861571	2.5	scene	neutral	violation	3	A	45	1	0.7639814470894635
16.014230382861573	3.0	feedback	n/a	n/a	n/a	n/a	n/a	n/a	n/a
19.514145499793813	2.5	scene	reward	nonviolation	3	A	88	1	0.6910750851966441
22.01414549979381	3.0	feedback	n/a	n/a	n/a	n/a	n/a	n/a	n/a
25.514064415823675	2.5	scene	reward	nonviolation	3	A	56	1	0.7581605070736259
28.014064415823675	3.0	feedback	n/a	n/a	n/a	n/a	n/a	n/a	n/a
31.513983520912014	2.5	scene	reward	violation	3	A	29	1	0.8532297199126333
34.013983520912014	3.0	feedback	n/a	n/a	n/a	n/a	n/a	n/a	n/a
37.513907849788666	2.5	scene	neutral	nonviolation	3	A	76	1	1.0133093351032585
40.013907849788666	3.0	feedback	n/a	n/a	n/a	n/a	n/a	n/a	n/a
43.513827946968384	2.5	scene	neutral	violation	3	A	6	1	0.8793883968610317
46.013827946968384	3.0	feedback	n/a	n/a	n/a	n/a	n/a	n/a	n/a
49.51375588588417	2.5	scene	reward	violation	3	A	28	1	0.6364628470037133
52.01375588588417	3.0	feedback	n/a	n/a	n/a	n/a	n/a	n/a	n/a
55.51366907800548	2.5	scene	reward	nonviolation	3	A	87	1	0.6365517228841782
58.01366907800548	3.0	feedback	n/a	n/a	n/a	n/a	n/a	n/a	n/a
61.5135882908944	2.5	scene	neutral	nonviolation	3	A	78	1	0.6806386699900031
64.01358829089439	3.0	feedback	n/a	n/a	n/a	n/a	n/a	n/a	n/a
67.51350905396976	2.5	scene	reward	nonviolation	3	A	59	1	0.6957124150358139
70.01350905396976	3.0	feedback	n/a	n/a	n/a	n/a	n/a	n/a	n/a
73.51342889480293	2.5	scene	reward	violation	3	A	46	1	0.5767930729780346
76.01342889480293	3.0	feedback	n/a	n/a	n/a	n/a	n/a	n/a	n/a
79.51334621477872	2.5	scene	reward	violation	3	A	40	1	0.626876108115539
82.01334621477872	3.0	feedback	n/a	n/a	n/a	n/a	n/a	n/a	n/a
85.51327135995962	2.5	scene	reward	violation	3	A	16	1	0.7149544809944928
88.01327135995962	3.0	feedback	n/a	n/a	n/a	n/a	n/a	n/a	n/a
91.49651836394331	2.5	scene	reward	violation	3	A	4	1	0.5437058738898486
93.99651836394331	3.0	feedback	n/a	n/a	n/a	n/a	n/a	n/a	n/a
97.51310899481176	2.5	scene	neutral	nonviolation	3	A	86	1	0.7901149881072342
100.01310899481176	3.0	feedback	n/a	n/a	n/a	n/a	n/a	n/a	n/a
103.51303181098774	2.5	scene	neutral	violation	3	A	17	1	0.6551109859719872
106.01303181098774	3.0	feedback	n/a	n/a	n/a	n/a	n/a	n/a	n/a
109.49627888784744	2.5	scene	reward	nonviolation	3	A	55	1	0.780949983978644
111.99627888784744	3.0	feedback	n/a	n/a	n/a	n/a	n/a	n/a	n/a
115.49620626796968	2.5	scene	reward	nonviolation	3	A	80	1	0.7570194739382714
117.99620626796968	3.0	feedback	n/a	n/a	n/a	n/a	n/a	n/a	n/a
121.49611732992344	2.5	scene	reward	violation	3	A	10	1	0.6161062358878553
123.99611732992344	3.0	feedback	n/a	n/a	n/a	n/a	n/a	n/a	n/a
127.49603179981932	2.5	scene	reward	violation	3	A	41	1	0.6461940470617265
129.99603179981932	3.0	feedback	n/a	n/a	n/a	n/a	n/a	n/a	n/a
133.4959604779724	2.5	scene	neutral	violation	3	A	26	1	0.6972664878703654
135.9959604779724	3.0	feedback	n/a	n/a	n/a	n/a	n/a	n/a	n/a
139.49587715393864	2.5	scene	neutral	violation	3	A	27	1	0.7953505460172892
141.9958771539386	3.0	feedback	n/a	n/a	n/a	n/a	n/a	n/a	n/a
145.4958007468376	2.5	scene	neutral	violation	3	A	13	1	0.7424325030297041
147.9958007468376	3.0	feedback	n/a	n/a	n/a	n/a	n/a	n/a	n/a
151.49571541580372	2.5	scene	reward	nonviolation	3	A	70	1	0.6575251061003655
153.99571541580372	3.0	feedback	n/a	n/a	n/a	n/a	n/a	n/a	n/a
157.49564415891658	2.5	scene	neutral	nonviolation	3	A	53	1	0.6565829119645059
159.99564415891658	3.0	feedback	n/a	n/a	n/a	n/a	n/a	n/a	n/a
163.49556180997754	2.5	scene	neutral	nonviolation	3	A	71	1	0.7376727869268507
165.99556180997754	3.0	feedback	n/a	n/a	n/a	n/a	n/a	n/a	n/a
169.49547159578648	2.5	scene	neutral	violation	3	A	14	1	0.6567618642002344
171.9954715957865	3.0	feedback	n/a	n/a	n/a	n/a	n/a	n/a	n/a
175.49540681578222	2.5	scene	neutral	nonviolation	3	A	61	1	0.6438288742210716
177.99540681578222	3.0	feedback	n/a	n/a	n/a	n/a	n/a	n/a	n/a
181.4953071959317	2.5	scene	neutral	violation	3	A	43	1	0.7829226949252188
183.9953071959317	3.0	feedback	n/a	n/a	n/a	n/a	n/a	n/a	n/a
187.49524618685246	2.5	scene	reward	violation	3	A	38	1	0.6429955461062491
189.99524618685246	3.0	feedback	n/a	n/a	n/a	n/a	n/a	n/a	n/a
193.49978259787892	2.5	scene	reward	nonviolation	3	A	96	1	0.6884542140178382
195.99978259787892	3.0	feedback	n/a	n/a	n/a	n/a	n/a	n/a	n/a
199.49506448884492	2.5	scene	reward	nonviolation	3	A	72	1	0.5471736639738083
201.99506448884492	3.0	feedback	n/a	n/a	n/a	n/a	n/a	n/a	n/a
205.4989768969826	2.5	scene	reward	violation	3	A	7	1	0.5802659008186309
207.9989768969826	3.0	feedback	n/a	n/a	n/a	n/a	n/a	n/a	n/a
211.494916271884	2.5	scene	neutral	violation	3	A	35	1	0.6533202040009201
213.994916271884	3.0	feedback	n/a	n/a	n/a	n/a	n/a	n/a	n/a
217.49483681982383	2.5	scene	neutral	nonviolation	3	A	49	1	0.7654011130798608
219.99483681982383	3.0	feedback	n/a	n/a	n/a	n/a	n/a	n/a	n/a
223.49475801899098	2.5	scene	reward	nonviolation	3	A	92	1	0.6844779499806464
225.99475801899098	3.0	feedback	n/a	n/a	n/a	n/a	n/a	n/a	n/a
229.49466749699783	2.5	scene	reward	violation	3	A	23	1	0.5635797148570418
231.99466749699783	3.0	feedback	n/a	n/a	n/a	n/a	n/a	n/a	n/a
235.49458653084	2.5	scene	neutral	nonviolation	3	A	66	1	0.7196532329544425
237.99458653084	3.0	feedback	n/a	n/a	n/a	n/a	n/a	n/a	n/a
241.4971721498296	2.5	scene	neutral	violation	3	A	21	1	0.6600687240716071
243.9971721498296	3.0	feedback	n/a	n/a	n/a	n/a	n/a	n/a	n/a
247.49442550190724	2.5	scene	reward	violation	3	A	24	1	0.6108185120392591
249.99442550190724	3.0	feedback	n/a	n/a	n/a	n/a	n/a	n/a	n/a
253.4943486619741	2.5	scene	reward	nonviolation	3	A	75	1	0.6198982738424093
255.9943486619741	3.0	feedback	n/a	n/a	n/a	n/a	n/a	n/a	n/a
259.49426098400727	2.5	scene	neutral	nonviolation	3	A	93	1	0.7799840159714222
261.99426098400727	3.0	feedback	n/a	n/a	n/a	n/a	n/a	n/a	n/a
265.4941804518457	2.5	scene	neutral	nonviolation	3	A	60	1	0.6880676541477442
267.9941804518457	3.0	feedback	n/a	n/a	n/a	n/a	n/a	n/a	n/a
271.4940976807848	2.5	scene	neutral	nonviolation	3	A	91	1	0.6711539682000875
273.9940976807848	3.0	feedback	n/a	n/a	n/a	n/a	n/a	n/a	n/a
277.4940180669073	2.5	scene	neutral	violation	3	A	33	1	0.7812313160393387
279.9940180669073	3.0	feedback	n/a	n/a	n/a	n/a	n/a	n/a	n/a
283.4950180328451	2.5	scene	reward	nonviolation	3	A	64	1	0.7462296290323138
285.9950180328451	3.0	feedback	n/a	n/a	n/a	n/a	n/a	n/a	n/a
289.49386064382264	2.5	scene	neutral	violation	3	A	3	1	0.6333850321825594
291.99386064382264	3.0	feedback	n/a	n/a	n/a	n/a	n/a	n/a	n/a
295.49471297394484	2.5	scene	neutral	nonviolation	3	A	85	1	1.142534723971039
297.99471297394484	3.0	feedback	n/a	n/a	n/a	n/a	n/a	n/a	n/a
301.4937012009322	2.5	scene	neutral	violation	4	A	27	1	0.7135469620116055
303.9937012009322	3.0	feedback	n/a	n/a	n/a	n/a	n/a	n/a	n/a
307.49361070082523	2.5	scene	reward	violation	4	A	16	1	0.8036456310655922
309.99361070082523	3.0	feedback	n/a	n/a	n/a	n/a	n/a	n/a	n/a
313.49357807892375	2.5	scene	reward	violation	4	A	40	1	0.6096770649310201
315.99357807892375	3.0	feedback	n/a	n/a	n/a	n/a	n/a	n/a	n/a
319.49344985000783	2.5	scene	reward	violation	4	A	4	1	0.5367994247935712
321.99344985000783	3.0	feedback	n/a	n/a	n/a	n/a	n/a	n/a	n/a
325.49336756579584	2.5	scene	reward	nonviolation	4	A	80	1	0.5688851890154183
327.99336756579584	3.0	feedback	n/a	n/a	n/a	n/a	n/a	n/a	n/a
331.4932941738516	2.5	scene	neutral	nonviolation	4	A	76	1	0.7689618780277669
333.9932941738516	3.0	feedback	n/a	n/a	n/a	n/a	n/a	n/a	n/a
337.4932063960005	2.5	scene	neutral	nonviolation	4	A	53	1	0.6289666488301009
339.9932063960005	3.0	feedback	n/a	n/a	n/a	n/a	n/a	n/a	n/a
343.493129073875	2.5	scene	reward	nonviolation	4	A	96	1	0.5791303869336843
345.99312907387497	3.0	feedback	n/a	n/a	n/a	n/a	n/a	n/a	n/a
349.4930487328674	2.5	scene	reward	nonviolation	4	A	56	1	0.5562066549900919
351.9930487328674	3.0	feedback	n/a	n/a	n/a	n/a	n/a	n/a	n/a
355.49296789988875	2.5	scene	neutral	violation	4	A	26	1	0.6372907611075789
357.99296789988875	3.0	feedback	n/a	n/a	n/a	n/a	n/a	n/a	n/a
361.4928797988687	2.5	scene	reward	nonviolation	4	A	75	1	0.62537443311885
363.9928797988687	3.0	feedback	n/a	n/a	n/a	n/a	n/a	n/a	n/a
367.49280729191383	2.5	scene	neutral	nonviolation	4	A	49	1	0.5524498978629708
369.99280729191383	3.0	feedback	n/a	n/a	n/a	n/a	n/a	n/a	n/a
373.4927238118835	2.5	scene	reward	violation	4	A	46	1	0.5115324219223112
375.9927238118835	3.0	feedback	n/a	n/a	n/a	n/a	n/a	n/a	n/a
379.49263641284784	2.5	scene	neutral	violation	4	A	33	1	0.7006206540390849
381.99263641284784	3.0	feedback	n/a	n/a	n/a	n/a	n/a	n/a	n/a
385.4925553838257	2.5	scene	reward	nonviolation	4	A	64	1	0.7817060961388052
387.9925553838257	3.0	feedback	n/a	n/a	n/a	n/a	n/a	n/a	n/a
391.4924803979229	2.5	scene	neutral	violation	4	A	14	1	0.6717791119590402
393.9924803979229	3.0	feedback	n/a	n/a	n/a	n/a	n/a	n/a	n/a
397.49239348480484	2.5	scene	neutral	violation	4	A	21	1	0.6398716741241515
399.99239348480484	3.0	feedback	n/a	n/a	n/a	n/a	n/a	n/a	n/a
403.49232168984594	2.5	scene	reward	violation	4	A	28	1	0.5999381800647825
405.99232168984594	3.0	feedback	n/a	n/a	n/a	n/a	n/a	n/a	n/a
409.49225670378655	2.5	scene	neutral	nonviolation	4	A	60	1	0.6120090112090111
411.99225670378655	3.0	feedback	n/a	n/a	n/a	n/a	n/a	n/a	n/a
415.49215170787653	2.5	scene	neutral	violation	4	A	17	1	0.6711128340102732
417.99215170787653	3.0	feedback	n/a	n/a	n/a	n/a	n/a	n/a	n/a
421.4920696718618	2.5	scene	reward	violation	4	A	24	1	0.5951951181050389
423.9920696718618	3.0	feedback	n/a	n/a	n/a	n/a	n/a	n/a	n/a
427.4919889138546	2.5	scene	neutral	nonviolation	4	A	78	1	0.5772753651253879
429.9919889138546	3.0	feedback	n/a	n/a	n/a	n/a	n/a	n/a	n/a
433.4919110988267	2.5	scene	reward	violation	4	A	38	1	0.5733538360800594
435.9919110988267	3.0	feedback	n/a	n/a	n/a	n/a	n/a	n/a	n/a
439.49183101998636	2.5	scene	neutral	violation	4	A	13	1	0.683437512954697
441.99183101998636	3.0	feedback	n/a	n/a	n/a	n/a	n/a	n/a	n/a
445.4917514608242	2.5	scene	neutral	nonviolation	4	A	61	1	0.6505210001487285
447.9917514608242	3.0	feedback	n/a	n/a	n/a	n/a	n/a	n/a	n/a
451.49166301591316	2.5	scene	neutral	nonviolation	4	A	86	1	0.8836041239555925
453.99166301591316	3.0	feedback	n/a	n/a	n/a	n/a	n/a	n/a	n/a
457.4915807419457	2.5	scene	reward	violation	4	A	23	1	0.5446917158551514
459.9915807419457	3.0	feedback	n/a	n/a	n/a	n/a	n/a	n/a	n/a
463.4915056989994	2.5	scene	neutral	violation	4	A	6	1	0.6027670388575643
465.9915056989994	3.0	feedback	n/a	n/a	n/a	n/a	n/a	n/a	n/a
469.4914198259357	2.5	scene	reward	nonviolation	4	A	59	1	0.6908505859319121
471.9914198259357	3.0	feedback	n/a	n/a	n/a	n/a	n/a	n/a	n/a
475.49134384491475	2.5	scene	reward	nonviolation	4	A	88	1	0.5549305190797895
477.99134384491475	3.0	feedback	n/a	n/a	n/a	n/a	n/a	n/a	n/a
481.4912552069872	2.5	scene	neutral	nonviolation	4	A	66	1	0.5670150970108807
483.9912552069872	3.0	feedback	n/a	n/a	n/a	n/a	n/a	n/a	n/a
487.49117423594004	2.5	scene	neutral	violation	4	A	3	1	0.5510366449598223
489.99117423594004	3.0	feedback	n/a	n/a	n/a	n/a	n/a	n/a	n/a
493.49109785677865	2.5	scene	reward	violation	4	A	7	1	0.6071882250253111
495.99109785677865	3.0	feedback	n/a	n/a	n/a	n/a	n/a	n/a	n/a
499.49100913689466	2.5	scene	reward	nonviolation	4	A	72	1	0.5912658800370991
501.99100913689466	3.0	feedback	n/a	n/a	n/a	n/a	n/a	n/a	n/a
505.4909303369932	2.5	scene	reward	violation	4	A	29	1	0.6303494889289141
507.9909303369932	3.0	feedback	n/a	n/a	n/a	n/a	n/a	n/a	n/a
511.49084758083336	2.5	scene	reward	nonviolation	4	A	92	1	0.6384297250770032
513.9908475808334	3.0	feedback	n/a	n/a	n/a	n/a	n/a	n/a	n/a
517.4907643699553	2.5	scene	neutral	nonviolation	4	A	93	1	0.8455146849155426
519.9907643699553	3.0	feedback	n/a	n/a	n/a	n/a	n/a	n/a	n/a
523.4906840128824	2.5	scene	neutral	violation	4	A	35	1	0.5765916879754514
525.9906840128824	3.0	feedback	n/a	n/a	n/a	n/a	n/a	n/a	n/a
529.4906046658289	2.5	scene	reward	violation	4	A	10	1	0.6346709809731692
531.9906046658289	3.0	feedback	n/a	n/a	n/a	n/a	n/a	n/a	n/a
535.4738471398596	2.5	scene	neutral	violation	4	A	45	1	1.0244330249261109
537.9738471398596	3.0	feedback	n/a	n/a	n/a	n/a	n/a	n/a	n/a
541.4737659278327	2.5	scene	reward	nonviolation	4	A	70	1	0.5305191611405462
543.9737659278327	3.0	feedback	n/a	n/a	n/a	n/a	n/a	n/a	n/a
547.473687633872	2.5	scene	reward	nonviolation	4	A	55	1	0.8255906240083277
549.973687633872	3.0	feedback	n/a	n/a	n/a	n/a	n/a	n/a	n/a
553.4902776079252	2.5	scene	neutral	nonviolation	4	A	71	1	0.9990017788950354
555.9902776079252	3.0	feedback	n/a	n/a	n/a	n/a	n/a	n/a	n/a
559.4735369759146	2.5	scene	reward	violation	4	A	41	1	0.5827207919210196
561.9735369759146	3.0	feedback	n/a	n/a	n/a	n/a	n/a	n/a	n/a
565.4734848449008	2.5	scene	neutral	nonviolation	4	A	91	1	0.5948288689833134
567.9734848449008	3.0	feedback	n/a	n/a	n/a	n/a	n/a	n/a	n/a
571.4733622169588	2.5	scene	neutral	nonviolation	4	A	85	1	0.6729224699083716
573.9733622169588	3.0	feedback	n/a	n/a	n/a	n/a	n/a	n/a	n/a
577.4732892489992	2.5	scene	reward	nonviolation	4	A	87	1	0.6709943858440965
579.9732892489992	3.0	feedback	n/a	n/a	n/a	n/a	n/a	n/a	n/a
583.4732061049434	2.5	scene	neutral	violation	4	A	43	1	0.6290832899976522
585.9732061049434	3.0	feedback	n/a	n/a	n/a	n/a	n/a	n/a	n/a
