onset	duration	trial_type	condition	response_accuracy	response_time
13.505333239911124	2.5	A	nonviolation	1	0.8661404110025615
16.50177317392081	2.5	B	violation	1	1.5826185460900888
19.501733943005085	2.5	A	violation	1	0.7087385529885069
22.501699491986074	2.5	A	violation	1	0.6067732860101387
25.50166142091621	2.5	B	nonviolation	1	1.091816610074602
28.501621023984622	2.5	B	violation	0	1.4048532879678532
31.501573033980087	2.5	B	nonviolation	1	1.625903003034182
34.50152927194722	2.5	A	violation	1	1.0159556689905005
37.50150051200762	2.5	A	violation	1	0.6769771679537371
40.50145554693881	2.5	A	violation	1	0.8130206980276853
43.50141721498221	2.5	B	violation	1	1.216063890955411
46.50137619196903	2.5	A	nonviolation	1	0.9201060299528764
49.50133838201873	2.5	A	violation	1	0.7611410499084741
52.50129974295851	2.5	B	violation	1	1.1321834940463305
55.50127817795146	2.5	B	nonviolation	1	1.7402099020546302
58.50122595496941	2.5	B	violation	1	1.2772542090388015
61.50118450098671	2.5	A	nonviolation	1	0.921298251952976
64.50115005893167	2.5	B	nonviolation	0	1.4433300860691816
67.50110193097498	2.5	A	violation	1	0.976381832966581
70.5010577699868	2.5	A	violation	1	1.4434255650267005
73.50101969693787	2.5	B	violation	1	1.2004664560081435
76.50098205998074	2.5	A	nonviolation	1	0.7255057329311967
79.50095088698436	2.5	B	nonviolation	0	1.5725415640044955
82.50091161299497	2.5	A	violation	1	0.9315722999162972
85.50085803400725	2.5	B	nonviolation	1	1.260625364957377
88.5008333720034	2.5	B	violation	0	1.6736477279337123
91.50078513799237	2.5	A	nonviolation	1	0.7916999439476058
94.50074628298172	2.5	B	violation	1	0.8307392949936911
97.50070175400471	2.5	B	nonviolation	1	1.8477970180101693
100.5006721370155	2.5	B	violation	1	1.390814848942682
103.50062293291558	2.5	B	violation	0	1.1098680250579491
106.50059498799965	2.5	A	nonviolation	1	1.051896455930546
109.5005434489576	2.5	A	nonviolation	1	1.2839475070359183
112.50050697999541	2.5	A	violation	1	1.0649903540033847
115.50049149594271	2.5	B	nonviolation	0	0.965011658030562
118.50045693095308	2.5	B	violation	1	1.270032725064084
121.5004242109135	2.5	B	nonviolation	0	1.7670701300958171
124.50035449198911	2.5	A	violation	1	1.1731376389507204
127.50031565199606	2.5	A	nonviolation	1	0.9711714719887824
130.5002762780059	2.5	B	nonviolation	0	1.2592127389507368
133.50023637793493	2.5	A	nonviolation	1	0.8222622310277075
136.50019442499615	2.5	B	nonviolation	0	1.1952977660112083
139.50015096296556	2.5	B	nonviolation	1	0.8902885400457308
142.50010512094013	2.5	A	nonviolation	1	0.6373863540356979
145.50007610791363	2.5	B	violation	1	1.1224200460128486
148.50003123795614	2.5	A	violation	1	1.2614655890502036
151.49999101401772	2.5	A	nonviolation	1	0.708503495901823
154.49995145492719	2.5	A	nonviolation	1	0.8485495400382206
157.49991099594627	2.5	B	nonviolation	0	1.1755844170693308
160.4998807220254	2.5	B	nonviolation	0	1.1076164359692484
163.49983836594038	2.5	B	violation	1	0.6886547100730239
166.49979223497215	2.5	B	nonviolation	1	0.8447054730495438
169.4997606209945	2.5	B	nonviolation	0	1.3357315269531682
172.4997203219682	2.5	A	nonviolation	1	1.2947833830257878
175.49967093497983	2.5	A	nonviolation	1	0.7747383209643885
178.4996374140028	2.5	A	nonviolation	1	0.6478545930003747
181.4995873129228	2.5	A	violation	1	0.9909107940038666
184.49954908702057	2.5	B	violation	0	1.097954006982036
187.4995160209946	2.5	B	nonviolation	0	1.2399800959974527
190.4994822340086	2.5	A	violation	1	0.8700134319951758
193.49942703300619	2.5	B	violation	0	0.939075520960614
196.4993888019817	2.5	B	violation	1	0.8931104979710653
199.49934550595933	2.5	A	nonviolation	1	0.8301508349832147
202.49931503692642	2.5	A	violation	1	0.6851835530251265
205.49929967802018	2.5	B	violation	0	1.1172056569484994
208.49923642899373	2.5	A	nonviolation	1	0.8672622540034354
211.4991955489386	2.5	A	nonviolation	1	0.8593096080003306
214.4991538869217	2.5	A	violation	1	0.6443532250123098
217.49911837792027	2.5	B	violation	1	0.8783816910581663
220.49907571601216	2.5	A	violation	1	0.8934268959565088
223.49903798592283	2.5	A	violation	1	0.8944617970846593
226.49899623100646	2.5	B	violation	0	1.2185116009786725
229.49895715794992	2.5	A	nonviolation	1	0.6915455450071022
232.49891064397525	2.5	B	violation	0	1.0445923040388152
235.4988767959876	2.5	A	nonviolation	1	0.9486270189518108
238.4988397610141	2.5	B	nonviolation	0	1.1836822609184308
241.49879394599705	2.5	B	nonviolation	0	1.207708248985
244.4987551739905	2.5	A	nonviolation	1	0.8547491970239207
247.49871479696597	2.5	B	violation	0	1.0557867429452017
250.4986842549406	2.5	A	nonviolation	1	1.1298282940406352
253.4986379019683	2.5	B	nonviolation	0	1.1488659989554435
256.4985933499411	2.5	A	nonviolation	1	0.9139168000547216
259.4985573219601	2.5	A	violation	1	0.8569544119527563
262.4985183189856	2.5	B	violation	0	1.3199963859515265
265.4984607689548	2.5	A	violation	1	1.1159769810037687
268.498427190003	2.5	A	violation	1	1.0220750420121476
271.4983950739261	2.5	B	violation	1	1.1681111290818078
274.4983469659928	2.5	A	nonviolation	1	1.0221639609662816
277.4983155269874	2.5	B	nonviolation	0	1.1121962739853188
280.4982741629937	2.5	B	nonviolation	0	1.2012409219751137
283.49822590197437	2.5	A	violation	1	1.0132846540072933
286.4981931999792	2.5	B	nonviolation	0	1.3072502949507907
289.49814387096563	2.5	A	violation	1	0.8723697869572788
292.49811429693364	2.5	A	violation	1	0.9043947859900072
295.49807262001565	2.5	B	violation	1	1.2144441049313173
298.4980350129772	2.5	B	nonviolation	1	1.5404819099931046
301.4979946969542	2.5	B	violation	1	1.1175136900274083
304.4979463599157	2.5	A	violation	1	1.2525718950200826
307.4979111090069	2.5	B	nonviolation	1	0.8586034959880635
310.49787125899456	2.5	B	nonviolation	0	1.2366471809800714
313.49782590998797	2.5	B	nonviolation	0	1.2976883560186252
316.4977860129438	2.5	A	nonviolation	1	0.676725241006352
319.49775144795416	2.5	A	violation	1	0.7317651490448043
322.49771157291246	2.5	A	nonviolation	1	0.7348286430351436
325.4976641070097	2.5	A	nonviolation	0	0.8598479939391837
328.49762159492815	2.5	A	nonviolation	1	0.7698935799999163
331.4975926820189	2.5	A	nonviolation	1	0.7509350948967041
334.4975533459801	2.5	A	violation	1	0.6419695660006255
337.4975109390216	2.5	A	violation	1	0.8110075679142028
340.49745999393053	2.5	A	violation	1	0.7160548820393159
343.4807452110108	2.5	B	nonviolation	0	0.9687727509299292
346.480715774931	2.5	A	nonviolation	1	0.5957999500678852
349.48066384496633	2.5	B	violation	0	0.7828239699592814
352.4973028999521	2.5	B	violation	1	0.6881554790306836
355.4805834669387	2.5	B	violation	1	1.0209406570065769
358.4805415439186	2.5	B	violation	0	1.4939866630593317
361.4805098759243	2.5	A	violation	1	0.7750060370890424
364.4804724069545	2.5	A	nonviolation	1	0.7800443840678781
367.48042907100165	2.5	B	nonviolation	1	0.8740922689903527
370.48039738391526	2.5	A	nonviolation	1	0.6361274010268971
373.48035030800384	2.5	B	nonviolation	1	1.0101710529997945
376.48030652594747	2.5	A	nonviolation	1	1.1151009680470452
379.48026908701286	2.5	A	violation	1	0.8212517399806529
382.4802248349879	2.5	A	violation	1	0.8702993430197239
385.48020096798433	2.5	B	nonviolation	0	0.8233240030240268
388.48014544392936	2.5	B	violation	0	1.0773767189821228
391.48010228399653	2.5	B	nonviolation	0	1.1944209720240906
394.4801121719647	2.5	B	nonviolation	0	0.9294125030282884
397.4800333419116	2.5	B	violation	0	1.2644920360762626
400.48002813395584	2.5	A	violation	1	0.8804995400132611
403.479963463964	2.5	B	violation	1	1.2225608839653432
406.47991844394716	2.5	A	violation	1	0.7456059290561825
409.47988122492103	2.5	B	nonviolation	0	0.7306453289929777
412.47983905195724	2.5	B	violation	1	1.3736854440066963
415.47979786794167	2.5	B	violation	1	0.9387362169800326
418.4797584270127	2.5	B	nonviolation	0	1.1997649569530042
421.4797179149464	2.5	B	violation	1	1.3258057499770075
424.4796655640239	2.5	B	nonviolation	0	1.6138657659757882
427.4796309419908	2.5	B	violation	1	0.9008963300148024
430.4795869359514	2.5	A	nonviolation	1	0.9889502619625999
433.47956180095207	2.5	A	nonviolation	1	0.6799701270647347
436.47950597794267	2.5	A	nonviolation	1	0.8598982139956206
439.47946485702414	2.5	A	violation	1	0.9500622369814664
442.47942918795167	2.5	A	violation	1	0.7281055820640177
445.47938887891365	2.5	A	nonviolation	1	0.930140063050203
448.47934694902506	2.5	A	violation	1	0.7691948818974197
451.47931549500214	2.5	B	violation	1	1.049229186959565
454.4792677420192	2.5	A	nonviolation	1	0.9102665069513024
457.479263696936	2.5	B	violation	0	1.0302735570585355
460.4791965059703	2.5	A	violation	1	1.018335892003961
463.479153244989	2.5	B	nonviolation	0	1.049365131999366
466.4791132420069	2.5	A	violation	1	0.8442999419057742
469.47907674999436	2.5	A	violation	1	0.6734592079883441
472.4790492459433	2.5	B	violation	0	1.2704635079717264
475.4789841480088	2.5	A	violation	1	0.790547956014052
478.4789437989239	2.5	B	violation	0	1.4524719510227442
481.478901808965	2.5	A	nonviolation	1	0.6846327789826319
484.47887171502225	2.5	A	violation	1	0.6976598019246012
487.4788271409925	2.5	A	violation	1	0.7437045739497989
490.47878396499436	2.5	A	nonviolation	1	1.2667573220096529
493.4787531429902	2.5	A	nonviolation	1	0.9227866940200328
496.478708946961	2.5	B	violation	1	0.6848285610321909
499.4786587679992	2.5	B	nonviolation	0	0.6498824289301409
502.4786293889629	2.5	A	violation	1	0.8219128899509087
505.47864731401205	2.5	B	nonviolation	0	1.3738965159282088
508.4785371709148	2.5	B	violation	0	1.1629983920138331
511.4784988069441	2.5	B	violation	0	0.6140395039692521
514.4784980620025	2.5	B	nonviolation	0	1.3530420949682591
517.4784269889351	2.5	B	nonviolation	0	0.7831093540880829
520.4783912139246	2.5	A	violation	1	0.562153400038369
523.4783461459447	2.5	A	nonviolation	0	0.8461925319861621
526.4782936619596	2.5	B	nonviolation	0	1.2002452180022374
529.4782571779797	2.5	A	violation	1	0.5122840349795297
532.4782156329602	2.5	B	violation	1	1.311328383977525
535.4781830710126	2.5	A	violation	1	0.8133614578982815
538.4781443789834	2.5	B	nonviolation	0	0.9323951839469372
541.4780944719679	2.5	B	violation	1	1.2884565419517455
544.4780583609827	2.5	A	nonviolation	1	0.6384875340154395
547.4780237089143	2.5	B	nonviolation	1	1.0314466060372072
550.4779804679565	2.5	A	nonviolation	1	1.1495620700297875
553.4779408479808	2.5	A	nonviolation	1	0.7976003510411829
556.4779049099889	2.5	B	nonviolation	0	1.1606423680204898
559.4778623029124	2.5	A	nonviolation	1	0.9356851220363752
562.4778185189933	2.5	A	nonviolation	1	0.8697261679917574
565.4777813999681	2.5	B	violation	0	1.2657678140094504
568.4777399109444	2.5	A	violation	1	0.98480673704762
571.4776947679931	2.5	B	violation	1	1.3368550629820677
574.477659335942	2.5	B	nonviolation	1	1.0938833280233666
577.4776139779715	2.5	A	nonviolation	1	0.7578092339681461
580.477578024962	2.5	B	nonviolation	0	0.9339673429494724
583.4775318360189	2.5	B	violation	1	1.2858946629567072
586.4774960209616	2.5	B	nonviolation	0	1.3490851840469986
