onset	duration	trial_type	condition	repetition	pairmate	pairID	category	subcategory	response_accuracy	response_time
13.501158036058767	1	prelearning	violation	1	B	13	scene	outdoor	1	0.7359189009293914
16.501118162996136	1	prelearning	violation	1	B	15	scene	outdoor	1	0.55296455998905
19.501093519036655	1	prelearning	violation	1	B	10	scene	indoor	1	0.6519906789762899
22.501053658081215	1	prelearning	nonviolation	1	B	59	scene	outdoor	1	0.8340317489346489
25.501009726081968	1	prelearning	nonviolation	1	A	57	scene	indoor	1	0.5000713289482519
28.500971339060925	1	prelearning	nonviolation	1	B	61	scene	indoor	0	0.5381106690037996
31.500933539005928	1	prelearning	nonviolation	1	B	63	scene	outdoor	1	0.4561480520060286
34.5008911479963	1	prelearning	nonviolation	1	A	60	scene	outdoor	1	0.5361896960530429
37.50084862601943	1	prelearning	nonviolation	1	B	58	scene	outdoor	0	0.5212353930110112
40.50081664102618	1	prelearning	violation	1	B	14	scene	indoor	1	0.8322693769587204
43.500775061082095	1	prelearning	nonviolation	1	A	62	scene	outdoor	1	0.6443068369990215
46.500735784997225	1	prelearning	violation	1	A	16	scene	indoor	0	0.9393273600144312
49.50069634604733	1	prelearning	nonviolation	1	A	64	scene	indoor	1	0.6293879679869859
52.50066141108982	1	prelearning	nonviolation	1	B	60	scene	outdoor	1	0.5724201479461044
55.5006199090276	1	prelearning	nonviolation	1	A	59	scene	indoor	1	0.5864025970222428
58.500590200070285	1	prelearning	nonviolation	1	B	57	scene	indoor	1	0.5784926869673654
61.50053883600049	1	prelearning	violation	1	A	11	scene	outdoor	1	0.866484779980965
64.50049956003204	1	prelearning	nonviolation	1	A	61	scene	outdoor	1	0.7995845939731225
67.5004558049841	1	prelearning	violation	1	B	12	scene	outdoor	1	0.6836273630615324
70.50042359600775	1	prelearning	violation	1	A	9	scene	outdoor	1	0.5026658050483093
73.50037969904952	1	prelearning	violation	1	A	13	scene	indoor	1	0.5437055339571089
76.5003371220082	1	prelearning	nonviolation	1	A	58	scene	indoor	1	0.5266271430300549
79.50029787805397	1	prelearning	violation	1	A	10	scene	outdoor	1	0.9537889850325882
82.50025775202084	1	prelearning	violation	1	B	16	scene	indoor	1	0.5838299280731007
85.50022046105005	1	prelearning	violation	1	A	12	scene	outdoor	1	0.540872126002796
88.5001774710836	1	prelearning	nonviolation	1	B	62	scene	indoor	0	0.620917756925337
91.50013562105595	1	prelearning	violation	1	B	9	scene	indoor	1	0.7259521159576252
94.50010034698063	1	prelearning	nonviolation	1	A	63	scene	outdoor	1	0.5239861980080605
97.50006091804244	1	prelearning	violation	1	A	15	scene	indoor	1	0.7300401310203597
100.50002550706269	1	prelearning	nonviolation	1	B	64	scene	indoor	1	0.8000664659775794
103.499997614068	1	prelearning	violation	1	A	14	scene	indoor	1	0.7100925180129707
106.49993841804098	1	prelearning	violation	1	B	11	scene	outdoor	1	0.6661512650316581
109.4998899520142	1	learning	nonviolation	2	A	57	scene	indoor	1	0.5182124900165945
112.49985612404998	1	learning	nonviolation	2	B	57	scene	indoor	1	0.5182384989457205
115.49981946207116	1	learning	violation	2	A	9	scene	outdoor	1	0.5842733799945563
118.49977977701927	1	learning	violation	2	B	9	scene	indoor	1	0.8883185960585251
121.49973352404776	1	learning	nonviolation	2	A	58	scene	indoor	1	0.598356761969626
124.49969865405001	1	learning	nonviolation	2	B	58	scene	outdoor	1	0.7623933739960194
127.49966281605884	1	learning	violation	2	A	10	scene	outdoor	1	0.5954337150324136
130.4996309609851	1	learning	violation	2	B	10	scene	indoor	1	0.5764598640380427
133.49959072703496	1	learning	violation	2	A	11	scene	outdoor	1	0.8255056829657406
136.4995444510132	1	learning	violation	2	B	11	scene	outdoor	0	0.7685474239988253
139.49949629604816	1	learning	violation	2	A	12	scene	outdoor	1	0.5586003219941631
142.499457949074	1	learning	violation	2	B	12	scene	outdoor	1	0.6156382890185341
145.49941620905884	1	learning	nonviolation	2	A	59	scene	indoor	1	0.5786838439526036
148.49937544006391	1	learning	nonviolation	2	B	59	scene	outdoor	1	0.8917224069591612
151.49934653704986	1	learning	nonviolation	2	A	60	scene	outdoor	1	1.0527467710198837
154.49929420801345	1	learning	nonviolation	2	B	60	scene	outdoor	1	0.5308032140601426
157.4992542300606	1	learning	nonviolation	3	A	58	scene	indoor	1	0.5288441509474069
160.4992198360851	1	learning	nonviolation	3	B	58	scene	outdoor	1	0.6838779709069058
163.49917298101352	1	learning	nonviolation	3	A	57	scene	indoor	1	0.5019611379830167
166.49913128407206	1	learning	nonviolation	3	B	57	scene	indoor	1	0.5079702999209985
169.49909386306538	1	learning	violation	3	A	12	scene	outdoor	1	0.5240096939960495
172.49905859108551	1	learning	violation	3	B	12	scene	outdoor	1	0.4410463549429551
175.49900906009137	1	learning	nonviolation	3	A	59	scene	indoor	1	0.516064319992438
178.49897995707582	1	learning	nonviolation	3	B	59	scene	outdoor	1	0.6001216049771756
181.4989332540426	1	learning	violation	3	A	10	scene	outdoor	1	0.5531648360192776
184.49889745400287	1	learning	violation	3	B	10	scene	indoor	1	0.4842058640206233
187.4988516670419	1	learning	nonviolation	4	A	57	scene	indoor	1	0.4952436200110242
190.4988132980652	1	learning	nonviolation	4	B	57	scene	indoor	1	0.5222925009438768
193.4987685530214	1	learning	nonviolation	2	A	61	scene	outdoor	1	0.4993107910268009
196.4987295230385	1	learning	nonviolation	2	B	61	scene	indoor	0	0.6613756529986858
199.49868654506284	1	learning	violation	4	A	12	scene	outdoor	1	0.5614168120082468
202.49865836405658	1	learning	violation	4	B	12	scene	outdoor	1	0.5143799409270287
205.49860825098582	1	learning	violation	2	A	13	scene	indoor	1	0.5764958939980716
208.4985655960627	1	learning	violation	2	B	13	scene	outdoor	1	0.6145333709428087
211.4985301150009	1	learning	nonviolation	4	A	59	scene	indoor	1	0.6335760020883754
214.49849449808244	1	learning	nonviolation	4	B	59	scene	outdoor	1	0.5546125929104164
217.49844665301498	1	learning	nonviolation	4	A	58	scene	indoor	1	0.488536569988355
220.49840285000388	1	learning	nonviolation	4	B	58	scene	outdoor	1	0.6757048440631479
223.4983709830558	1	learning	violation	4	A	10	scene	outdoor	1	0.4817385799251497
226.49833167903125	1	learning	violation	4	B	10	scene	indoor	1	0.4927757120458409
229.49830019508957	1	restudy	nonviolation	5	B	59	scene	outdoor	1	0.5348343329969794
232.49824511201587	1	learning	violation	3	A	9	scene	outdoor	1	0.54185843502637
235.49820461508355	1	learning	violation	3	B	9	scene	indoor	1	0.5899025679100305
238.498170452076	1	learning	violation	3	A	11	scene	outdoor	1	0.6188812489854172
241.49812249909158	1	learning	violation	3	B	11	scene	outdoor	1	0.7459859219379723
244.4980867659906	1	learning	nonviolation	2	A	62	scene	outdoor	1	0.5060258531011641
247.49804687406868	1	learning	nonviolation	2	B	62	scene	indoor	1	0.4890633029863238
250.49800143705212	1	learning	violation	2	A	14	scene	indoor	1	0.5950738650280982
253.49796053709	1	learning	violation	2	B	14	scene	indoor	1	0.4551466519478709
256.4979261109838	1	restudy	nonviolation	5	B	58	scene	outdoor	1	0.4941910940688104
259.49787767906673	1	learning	nonviolation	3	A	60	scene	outdoor	1	0.5092358209658414
262.49783675104845	1	learning	nonviolation	3	B	60	scene	outdoor	1	0.4932742649689317
265.49780582403764	1	learning	nonviolation	3	A	62	scene	outdoor	1	0.4373151259496808
268.4977630510693	1	learning	nonviolation	3	B	62	scene	indoor	1	0.6383481549564749
271.49771714606317	1	learning	violation	2	A	15	scene	indoor	1	0.4793939680093899
274.4976818750147	1	learning	violation	2	B	15	scene	outdoor	1	0.551432881038636
277.4976373880636	1	learning	violation	3	A	14	scene	indoor	1	0.5224799519637601
280.4975941150915	1	learning	violation	3	B	14	scene	indoor	1	0.4765193558996543
283.4975524250185	1	restudy	nonviolation	5	B	57	scene	indoor	1	0.4615639380645007
286.49751492601354	1	learning	violation	4	A	11	scene	outdoor	1	0.6226013869745657
289.4974735740106	1	learning	violation	4	B	11	scene	outdoor	1	0.4546393119962886
292.49743860703893	1	learning	nonviolation	4	A	60	scene	outdoor	1	0.5006735159549862
295.4974213350797	1	learning	nonviolation	4	B	60	scene	outdoor	1	0.4666951479157433
298.49735849804716	1	violation	violation	5	A	12	scene	outdoor	1	0.40875775495078415
301.4973097330658	1	violation	violation	1	X	12	face	male	0	0.4608103189384565
304.4972696399782	1	learning	nonviolation	3	A	61	scene	outdoor	1	0.4708525110036135
307.497226442094	1	learning	nonviolation	3	B	61	scene	indoor	0	0.5398925649933517
310.49719542602537	1	learning	violation	3	A	13	scene	indoor	1	0.6379218170186505
313.49715997208835	1	learning	violation	3	B	13	scene	outdoor	1	0.5299546179594472
316.497112287092	1	learning	violation	4	A	9	scene	outdoor	1	0.5600050869397819
319.4970678180689	1	learning	violation	4	B	9	scene	indoor	1	0.5260530239902437
322.49703311908524	1	restudy	nonviolation	6	B	58	scene	outdoor	1	0.5930884069530293
325.49700620607473	1	restudy	nonviolation	5	B	60	scene	outdoor	1	0.5341155329952016
328.4969544910128	1	violation	violation	5	A	10	scene	outdoor	1	0.7281646369956434
331.49690285208635	1	violation	violation	1	X	10	face	female	1	0.64721731597092
334.4968661740422	1	learning	nonviolation	4	A	62	scene	outdoor	1	0.4562552759889513
337.49682490807027	1	learning	nonviolation	4	B	62	scene	indoor	1	0.5643000549171121
340.4967820009915	1	restudy	nonviolation	6	B	59	scene	outdoor	1	0.4583407850004733
343.49675142904744	1	restudy	violation	5	B	12	scene	outdoor	1	0.44437325198668987
346.49670821498154	1	learning	violation	3	A	15	scene	indoor	1	0.5114439070457593
349.49666362302384	1	learning	violation	3	B	15	scene	outdoor	1	0.4574578070314601
352.49662439199165	1	restudy	nonviolation	6	B	57	scene	indoor	1	0.4804992970312014
355.49657903902704	1	learning	violation	2	A	16	scene	indoor	1	0.5235469919862226
358.4965391710867	1	learning	violation	2	B	16	scene	indoor	1	0.5715915089240298
361.49649933609186	1	restudy	nonviolation	6	B	60	scene	outdoor	1	0.5316276449011639
364.49645548302215	1	violation	violation	5	A	11	scene	outdoor	0	0.5406711089890449
367.49641324009286	1	violation	violation	1	X	11	face	male	1	0.6037144178990275
370.49637828907004	1	learning	nonviolation	4	A	61	scene	outdoor	1	0.5057476909132674
373.4963355670916	1	learning	nonviolation	4	B	61	scene	indoor	0	0.4906767689390108
376.49630293506203	1	violation	violation	5	A	9	scene	outdoor	1	0.5538246110081673
379.49625153606763	1	violation	violation	1	X	9	face	female	1	0.5408855510177091
382.4962229720549	1	learning	violation	4	A	14	scene	indoor	1	0.6299076690338552
385.49617271299934	1	learning	violation	4	B	14	scene	indoor	1	0.5099550070008263
388.4961317679845	1	learning	nonviolation	2	A	63	scene	outdoor	1	0.4899970530532301
391.4960920379963	1	learning	nonviolation	2	B	63	scene	outdoor	1	0.4850357410032302
394.49605196306953	1	restudy	nonviolation	5	B	61	scene	indoor	0	0.452079173992388
397.49601902009454	1	violation	violation	6	A	12	scene	outdoor	1	0.5261117749614641
400.49597581604036	1	violation	violation	1	Y	12	face	male	1	0.5981516969623044
403.49593085108785	1	restudy	violation	5	B	11	scene	outdoor	1	0.6942048869095743
406.49589607608505	1	learning	violation	4	A	13	scene	indoor	1	0.5532301169587299
409.4958556650672	1	learning	violation	4	B	13	scene	outdoor	1	0.80227757897228
412.49580751603935	1	restudy	nonviolation	5	B	62	scene	indoor	1	0.7663234809879214
415.4957673780154	1	learning	violation	4	A	15	scene	indoor	1	0.5793652139836922
418.4957347010495	1	learning	violation	4	B	15	scene	outdoor	1	0.6083958449307829
421.4956978560658	1	learning	violation	3	A	16	scene	indoor	1	0.5174358829390258
424.49564662505867	1	learning	violation	3	B	16	scene	indoor	1	0.6014028539648281
427.47892394301016	1	restudy	violation	5	B	10	scene	indoor	1	0.514208210981451
430.47888558509294	1	restudy	violation	6	B	12	scene	outdoor	1	0.5862463919911534
433.478847875027	1	learning	nonviolation	2	A	64	scene	indoor	1	0.4872877850430086
436.4788051430369	1	learning	nonviolation	2	B	64	scene	indoor	0	0.8583266240311787
439.4954469089862	1	violation	violation	5	A	13	scene	indoor	1	0.5316871250979602
442.47872817504685	1	violation	violation	1	X	13	face	male	1	0.5254285429837182
445.47867643099744	1	violation	violation	6	A	10	scene	outdoor	1	0.5674620430218056
448.47864991298417	1	violation	violation	1	Y	10	face	female	1	0.4814905310049653
451.4786048120586	1	violation	violation	5	A	14	scene	indoor	1	0.5375293119577691
454.4785636130255	1	violation	violation	1	X	14	face	female	1	0.6495766730513424
457.4785224050283	1	violation	violation	6	A	11	scene	outdoor	0	0.5956173329614103
460.47848361509386	1	violation	violation	1	Y	11	face	male	1	0.5566122309537604
463.47843740507966	1	learning	nonviolation	3	A	64	scene	indoor	1	0.5757068030070513
466.47841436101584	1	learning	nonviolation	3	B	64	scene	indoor	1	0.6997211200650781
469.47836004500283	1	learning	nonviolation	3	A	63	scene	outdoor	1	0.5477807460119948
472.47832243808085	1	learning	nonviolation	3	B	63	scene	outdoor	1	0.7978171840077266
475.47828516701696	1	restudy	violation	5	B	9	scene	indoor	1	0.9288587630726396
478.4782425520243	1	violation	violation	5	A	15	scene	indoor	1	0.5428943709703162
481.4781972890487	1	violation	violation	1	X	15	face	male	1	0.5629668720066547
484.47816372907255	1	restudy	violation	5	B	14	scene	indoor	1	0.5409784209914505
487.4781221580925	1	restudy	nonviolation	6	B	61	scene	indoor	0	0.5750162799376994
490.4780797130661	1	restudy	violation	5	B	15	scene	outdoor	1	0.6640636549564078
493.4780405130005	1	restudy	violation	5	B	13	scene	outdoor	1	0.5191011240240186
496.47800129198	1	learning	violation	4	A	16	scene	indoor	1	0.7651419891044497
499.4779573640553	1	learning	violation	4	B	16	scene	indoor	1	0.952188089955598
502.47791584208613	1	violation	violation	6	A	15	scene	indoor	1	0.525228536920622
505.4778896360658	1	violation	violation	1	Y	15	face	male	1	0.6022581569850445
508.4778378059855	1	violation	violation	6	A	9	scene	outdoor	1	0.5193094291025773
511.4778034300544	1	violation	violation	1	Y	9	face	female	1	0.5113450869685039
514.4777640930844	1	restudy	nonviolation	6	B	62	scene	indoor	1	0.6393800729420036
517.4777273710351	1	learning	nonviolation	4	A	64	scene	indoor	1	0.5034187060082331
520.4776752130128	1	learning	nonviolation	4	B	64	scene	indoor	1	0.6984721639892086
523.477632904076	1	learning	nonviolation	4	A	63	scene	outdoor	1	0.5495141209103167
526.4775994180236	1	learning	nonviolation	4	B	63	scene	outdoor	1	0.5915492230560631
529.4775600710418	1	violation	violation	5	A	16	scene	indoor	1	0.6145860640099272
532.4775088680908	1	violation	violation	1	X	16	face	female	1	0.511581533937715
535.4774700230919	1	violation	violation	6	A	13	scene	indoor	1	0.6076803549658507
538.4774360250449	1	violation	violation	1	Y	13	face	male	1	0.5437154689570889
541.4773893700914	1	restudy	nonviolation	5	B	64	scene	indoor	0	0.6597910448908806
544.4773472870002	1	restudy	violation	6	B	10	scene	indoor	1	0.5888012360082939
547.4773114040727	1	restudy	violation	6	B	11	scene	outdoor	1	0.8828346079681069
550.4772635420086	1	restudy	violation	6	B	9	scene	indoor	1	0.580882059992291
553.4772380550859	1	restudy	nonviolation	5	B	63	scene	outdoor	1	0.561905198963359
556.4771854610881	1	restudy	nonviolation	6	B	64	scene	indoor	1	0.6389696359401569
559.4771453220163	1	restudy	violation	5	B	16	scene	indoor	1	0.5970044949790463
562.4771033970173	1	violation	violation	6	A	14	scene	indoor	0	1.0190494720591232
565.4770611909918	1	violation	violation	1	Y	14	face	female	1	0.6030887450324371
568.4770270430018	1	restudy	nonviolation	6	B	63	scene	outdoor	1	0.9271500000031664
571.4769907590235	1	violation	violation	6	A	16	scene	indoor	1	0.5811554240062833
574.4769521619892	1	violation	violation	1	Y	16	face	female	1	0.5471995300613344
577.4768986930138	1	restudy	violation	6	B	14	scene	indoor	1	0.5802589859813452
580.4768616830697	1	restudy	violation	6	B	15	scene	outdoor	1	0.548291806015186
583.476831963053	1	restudy	violation	6	B	16	scene	indoor	1	0.4533246179344133
586.4767820400883	1	restudy	violation	6	B	13	scene	outdoor	1	0.6283717919141054
