onset	duration	trial_type	subcategory	response_accuracy	response_time
13.513479670044035	0.5	scene	outdoor	1	0.8719756859936751
15.013460520014632	0.5	scene	outdoor	1	0.8509866010281257
16.5134427640005	0.5	scene	indoor	1	0.5650099630001932
18.013423454016447	0.5	scene	outdoor	1	0.4910306570236571
19.513404741010163	0.5	scene	indoor	1	0.5240412129787728
21.013382820005063	0.5	scene	outdoor	1	0.9229957690113224
22.513365595019422	0.5	scene	outdoor	1	0.6780789889744483
24.01334525301354	0.5	scene	indoor	1	0.6281037669978105
25.513326752989087	0.5	scene	indoor	1	0.6861281630117446
27.0133065879927	0.5	scene	indoor	1	0.6021459980402142
43.513089667016175	0.5	object	natural	1	0.5843589230207726
45.01307256601285	0.5	object	manmade	1	0.6833764319890179
46.51305297802901	0.5	object	manmade	1	0.8034264000016265
48.013033410010394	0.5	object	natural	1	0.604422404023353
49.513013857009355	0.5	object	natural	1	0.5934433070360683
51.0129925700021	0.5	object	manmade	1	0.5944534030277282
52.512974929006305	0.5	object	manmade	1	0.6874511840287596
54.012955584039446	0.5	object	manmade	1	0.7294902169960551
55.51293595100287	0.5	object	natural	1	0.5055153330322355
57.012916498992126	0.5	object	natural	1	0.4595390390022658
73.49607124901377	0.5	scene	indoor	1	0.6062955770175904
74.99601233104477	0.5	scene	outdoor	1	0.6534349479479715
76.49599365703762	0.5	scene	indoor	1	0.6154574259999208
77.99597330502002	0.5	scene	indoor	1	0.5864834110252559
79.49595478200354	0.5	scene	indoor	1	0.7104944580351003
80.99593413999537	0.5	scene	outdoor	1	0.6315250410116278
82.49591469502775	0.5	scene	outdoor	1	0.6095426119863987
83.99589515803382	0.5	scene	indoor	1	0.6025538310059346
85.49587926804088	0.5	scene	outdoor	1	0.61957377998624
86.99585733102867	0.5	scene	outdoor	1	0.5736020489712246
103.49564246600494	0.5	face	male	1	0.5428147760103457
104.99562460702145	0.5	face	male	1	0.5648000839864835
106.49560692202067	0.5	face	female	1	0.6518443850218318
107.99558427900774	0.5	face	female	1	0.5268682300229557
109.49557377799647	0.5	face	female	1	0.4178829960292205
110.99554671201622	0.5	face	male	1	0.5079072969965637
112.49552619602764	0.5	face	female	1	0.514935566985514
113.99550772900693	0.5	face	male	1	0.4438098969985731
115.49548583501019	0.5	face	female	1	0.5299667160143144
116.99546654004371	0.5	face	male	1	0.6449910389492288
133.4952532509924	0.5	object	natural	1	0.4962043350096792
134.9952343420009	0.5	object	manmade	1	0.4802212850190699
136.4952158150263	0.5	object	manmade	1	0.5592403169721365
137.99519332899945	0.5	object	natural	1	0.551270057039801
139.49517589702737	0.5	object	manmade	1	0.5812607539701276
140.9951548060053	0.5	object	natural	1	0.7813099990016781
142.49513655802002	0.5	object	manmade	1	0.5903329870197922
143.99511722300667	0.5	object	natural	1	0.4593391420203261
145.49509765999392	0.5	object	manmade	1	0.4883543089963496
146.9950778420316	0.5	object	natural	1	0.4153918399824761
163.49486298899865	0.5	face	male	1	0.4515986390179023
164.99484308203682	0.5	face	male	1	0.5536284059635364
166.4948242540122	0.5	face	male	1	0.4266398680047132
167.99480428203242	0.5	face	female	1	0.4706547849928029
169.49478456401266	0.5	face	male	1	0.487613418023102
170.99476504599443	0.5	face	female	1	0.4706807460170239
172.49474584200652	0.5	face	male	1	0.48071932198945433
173.9947261660127	0.5	face	female	1	0.4857358579756692
175.4947067539906	0.5	face	female	1	0.4817586819990538
176.99468573002378	0.5	face	female	1	0.5587809259886853
193.49447269301163	0.5	object	manmade	1	0.7689898220123723
194.99444968200987	0.5	object	natural	1	0.5170249789953232
196.4944342970266	0.5	object	natural	1	0.8790328920003958
197.9944132650271	0.5	object	manmade	1	0.4960597869940102
199.49439169000834	0.5	object	manmade	1	0.6790767899947241
200.99437416502042	0.5	object	manmade	1	0.6250984150101431
202.49435440899106	0.5	object	natural	1	0.7701154490350746
203.9943340109894	0.5	object	manmade	1	0.6381428990280256
205.49431577703217	0.5	object	natural	1	0.5790334519697353
206.99429405102273	0.5	object	natural	1	0.6721662239870057
223.49407872202573	0.5	face	female	1	0.4673961339867674
224.99405951204244	0.5	face	female	1	0.4364077899954282
226.49678066401975	0.5	face	female	1	0.41669265797827393
227.99402249901323	0.5	face	male	1	0.4594194429810159
229.49400303699076	0.5	face	female	1	0.593466125021223
230.99398311803816	0.5	face	male	1	0.4524894399801269
232.49396377801895	0.5	face	male	1	0.49851072701858357
233.99394255602965	0.5	face	male	1	0.5555250970064662
235.4939246470458	0.5	face	female	1	0.5745533059816808
236.99390546802897	0.5	face	male	1	0.5465636709704995
253.4936900610337	0.5	object	manmade	0	0.5877846569637768
254.99367053998867	0.5	object	manmade	1	0.8028014550218359
256.4961767269997	0.5	object	natural	1	0.5882956860004924
257.9936313970247	0.5	object	natural	1	0.7308452199795283
259.49361198203405	0.5	object	manmade	1	0.49986388796241954
260.9935924340389	0.5	object	natural	1	0.5278845169814304
262.4935727789998	0.5	object	manmade	1	0.9568466570344754
263.99355298804585	0.5	object	natural	1	0.5029196339892223
265.49353089701617	0.5	object	natural	1	0.6689446939853951
266.99351411801763	0.5	object	manmade	1	0.5079616400180385
283.49329663300887	0.5	scene	outdoor	1	0.6741783430334181
284.9932789350278	0.5	scene	outdoor	1	0.4742088339990005
286.4943567099981	0.5	scene	outdoor	1	0.6331183140282519
287.99324008700205	0.5	scene	indoor	1	0.4322376750060357
289.4932201310294	0.5	scene	indoor	1	0.4652671269723214
290.99320098903263	0.5	scene	outdoor	1	0.5142768659861758
292.4931813279982	0.5	scene	indoor	1	0.9513047820073552
293.9931586580351	0.5	scene	indoor	1	0.5863223290070891
295.49314203701215	0.5	scene	indoor	1	0.6373394660186023
296.9931281179888	0.5	scene	outdoor	1	0.46434985200176015
313.49290760600707	0.5	face	male	1	0.5115698830340989
314.9928885290283	0.5	face	female	1	0.695601335959509
316.49320543702925	0.5	face	male	1	0.5692784640123136
317.9928489770391	0.5	face	female	1	0.4746327649918385
319.4928292889963	0.5	face	female	1	0.4766658760490827
320.99280996702146	0.5	face	male	1	0.42667351599084213
322.4927904540091	0.5	face	female	1	0.5077735619852319
323.9927707280149	0.5	face	male	1	0.457710649992805
325.49275112501346	0.5	face	male	1	0.5507379950140603
326.9927317100228	0.5	face	female	1	0.4517581689869985
343.49251585203456	0.5	scene	outdoor	1	0.6649741230066866
344.9924969180138	0.5	scene	outdoor	1	0.49286760698305443
346.49247657804517	0.5	scene	outdoor	1	0.5000176689936779
347.99245911301114	0.5	scene	outdoor	1	0.6110331669915468
349.4924381690216	0.5	scene	indoor	1	0.5210335190058686
350.99241871898994	0.5	scene	indoor	1	0.49008276499807835
352.4923991840333	0.5	scene	outdoor	1	0.5540875970036723
353.99237961601466	0.5	scene	indoor	1	0.517026468005497
355.4923599730246	0.5	scene	indoor	1	0.9541229649912566
356.9923398059909	0.5	scene	indoor	1	0.5641495700110681
373.4921243439894	0.5	face	male	1	0.5003700200468302
374.9921056079911	0.5	face	female	1	0.4303837970364839
376.4920871100039	0.5	face	female	1	0.4714088279870339
377.99206683103694	0.5	face	female	1	0.5194316619890742
379.49204409500817	0.5	face	male	1	0.5354515500366688
380.99202628899366	0.5	face	male	1	0.40847059403313324
382.49200784403365	0.5	face	male	1	0.530484061979223
383.99198818102013	0.5	face	female	1	0.4925049910089001
385.49196795903845	0.5	face	male	1	0.5125280669890344
386.99194905301556	0.5	face	female	1	0.44554371101548895
403.49173215404153	0.5	scene	indoor	1	0.6787574689951725
404.9917119719903	0.5	scene	indoor	1	0.4957819330156781
406.4916924019926	0.5	scene	indoor	1	0.5518079080502503
407.99167445499916	0.5	scene	outdoor	1	0.4168103320407681
409.4916530229966	0.5	scene	indoor	1	0.48684423603117466
410.99163601599867	0.5	scene	outdoor	1	0.4758574290317483
412.4916138800327	0.5	scene	outdoor	1	0.627882887958549
413.99159645003965	0.5	scene	outdoor	1	0.5489011110039428
415.4915770700318	0.5	scene	indoor	1	0.47091515600914136
416.9915572910104	0.5	scene	outdoor	1	0.889798887015786
433.49134012003196	0.5	object	manmade	1	0.6461569090024568
434.9913202539901	0.5	object	natural	1	0.5361849900218658
436.49130377802067	0.5	object	natural	1	0.47218699200311676
437.99128336802823	0.5	object	manmade	1	0.485212565981783
439.4912637679954	0.5	object	natural	1	0.5602302710176446
440.9912422350026	0.5	object	manmade	1	0.4712624939857051
442.49122598103713	0.5	object	natural	1	0.5362883099587634
443.9912043699878	0.5	object	manmade	1	0.5602928200387396
445.49118553398876	0.5	object	manmade	1	0.6003178550163284
446.991165763	0.5	object	natural	1	0.5673314360319637
