onset	duration	trial_type	condition	repetition	pairmate	pairID	category	subcategory	response_accuracy	response_time
13.499711192969697	1	prelearning	nonviolation	1	A	52	scene	indoor	1	0.8712339560152031
16.499670699005947	1	prelearning	violation	1	B	7	scene	indoor	1	0.6992903979844414
19.49963613	1	prelearning	violation	1	B	6	scene	indoor	1	0.5753142769681291
22.499603740987368	1	prelearning	nonviolation	1	B	51	scene	indoor	1	0.5173294849810189
25.499552697991017	1	prelearning	violation	1	A	1	scene	outdoor	1	0.4633946869871579
28.499515967967447	1	prelearning	nonviolation	1	A	51	scene	indoor	1	0.7134286690270528
31.499507814995013	1	prelearning	nonviolation	1	A	49	scene	indoor	1	0.6214369639637879
34.49944237800082	1	prelearning	violation	1	A	3	scene	indoor	1	0.5634828860056587
37.49939603195526	1	prelearning	violation	1	B	5	scene	indoor	1	0.5255520320497453
40.49935940199066	1	prelearning	violation	1	B	1	scene	outdoor	0	0.5405926469829865
43.49932079500286	1	prelearning	violation	1	A	5	scene	indoor	1	0.7206257729558274
46.49928653199458	1	prelearning	nonviolation	1	A	53	scene	indoor	1	0.8736646659672259
49.499260385986425	1	prelearning	violation	1	B	4	scene	outdoor	1	0.744571432005614
52.499196315999136	1	prelearning	violation	1	B	8	scene	indoor	1	0.7367569159832783
55.49916787398979	1	prelearning	nonviolation	1	B	54	scene	outdoor	1	0.7757789649767801
58.49912887095706	1	prelearning	violation	1	A	7	scene	indoor	1	0.6148224920034409
61.49909054196905	1	prelearning	violation	1	B	3	scene	outdoor	1	0.766862046031747
64.49904979200801	1	prelearning	nonviolation	1	B	56	scene	outdoor	1	0.7268304499448277
67.49901097198017	1	prelearning	nonviolation	1	B	49	scene	indoor	1	0.7119372540037148
70.49897385697112	1	prelearning	violation	1	A	6	scene	outdoor	1	0.6389807470259257
73.49894029198913	1	prelearning	nonviolation	1	B	55	scene	indoor	n/a	n/a
76.49890296597732	1	prelearning	violation	1	B	2	scene	outdoor	1	0.5560530200018547
79.49886189296376	1	prelearning	violation	1	A	4	scene	outdoor	1	0.7520921260002069
82.4988171979785	1	prelearning	nonviolation	1	A	55	scene	outdoor	1	0.6571381069952622
85.49878336797701	1	prelearning	nonviolation	1	B	52	scene	outdoor	1	0.5491817030124366
88.4987363149994	1	prelearning	violation	1	A	8	scene	outdoor	1	0.6902243639924563
91.49871180800257	1	prelearning	violation	1	A	2	scene	indoor	1	0.8492443260038272
94.4986555299838	1	prelearning	nonviolation	1	B	53	scene	outdoor	1	0.8313044389942661
97.49861707800301	1	prelearning	nonviolation	1	A	56	scene	outdoor	1	0.5883410679525696
100.49858417600626	1	prelearning	nonviolation	1	B	50	scene	indoor	1	0.8013712679967284
103.49855146097252	1	prelearning	nonviolation	1	A	54	scene	outdoor	1	0.70340923598269
106.49851071095327	1	prelearning	nonviolation	1	A	50	scene	outdoor	1	0.7384472350240685
109.49846696096937	1	learning	violation	2	A	1	scene	outdoor	1	0.6764924780000001
112.49841991299765	1	learning	violation	2	B	1	scene	outdoor	1	0.5535423909896053
115.49838100600756	1	learning	violation	2	A	2	scene	indoor	1	0.7045790789998136
118.49835133296438	1	learning	violation	2	B	2	scene	outdoor	1	0.6496191060286947
121.49830864398972	1	learning	violation	2	A	3	scene	indoor	0	0.941651175962761
124.49827285099308	1	learning	violation	2	B	3	scene	outdoor	1	0.7756868099677376
127.49823296396063	1	learning	nonviolation	2	A	49	scene	indoor	1	0.7477291210088879
130.49820124398684	1	learning	nonviolation	2	B	49	scene	indoor	0	0.7717553689726628
133.49815382499943	1	learning	violation	3	A	2	scene	indoor	0	0.7837750460021198
136.49810521799373	1	learning	violation	3	B	2	scene	outdoor	1	0.6038601350155659
139.4980729270028	1	learning	violation	2	A	4	scene	outdoor	1	0.6698877629823983
142.4980352319544	1	learning	violation	2	B	4	scene	outdoor	1	0.6899271380389109
145.49799468298443	1	learning	violation	3	A	1	scene	outdoor	1	0.9829713869839908
148.49794332898458	1	learning	violation	3	B	1	scene	outdoor	1	0.6990208430215716
151.4979179149959	1	learning	nonviolation	2	A	50	scene	outdoor	1	0.7990472269593738
154.49787207797638	1	learning	nonviolation	2	B	50	scene	indoor	1	0.5990870170062408
157.49783848098014	1	learning	nonviolation	2	A	51	scene	indoor	1	0.6800661580055021
160.49778563599105	1	learning	nonviolation	2	B	51	scene	indoor	1	0.8171887089847587
163.49775888299337	1	learning	violation	4	A	2	scene	indoor	1	0.6502229199977592
166.49771907099057	1	learning	violation	4	B	2	scene	outdoor	0	1.1702495039789935
169.49767718097428	1	learning	violation	2	A	5	scene	indoor	1	1.1512904739938676
172.49763898499077	1	learning	violation	2	B	5	scene	indoor	0	0.7483292529941536
175.49758879095313	1	learning	nonviolation	2	A	52	scene	indoor	1	0.7823832220165059
178.49756100098602	1	learning	nonviolation	2	B	52	scene	outdoor	1	0.7144024689914659
181.497518151009	1	learning	violation	2	A	6	scene	outdoor	1	0.7434469099971466
184.49747431097785	1	learning	violation	2	B	6	scene	indoor	1	0.7863760269829072
187.49744190700585	1	learning	violation	2	A	7	scene	indoor	1	0.6955237069632858
190.49738913198237	1	learning	violation	2	B	7	scene	indoor	n/a	n/a
193.49735720199533	1	learning	nonviolation	3	A	50	scene	outdoor	1	0.9146197739755736
196.49730873596852	1	learning	nonviolation	3	B	50	scene	indoor	1	0.7616591930272989
199.49727144400825	1	violation	violation	5	A	2	scene	indoor	1	0.5787068129866384
202.49722845095675	1	violation	violation	1	X	2	face	male	1	0.9107419330393896
205.49719154596096	1	learning	nonviolation	3	A	51	scene	indoor	1	0.7708047070191242
208.49715300498062	1	learning	nonviolation	3	B	51	scene	indoor	1	0.6598228589864448
211.49711158598075	1	learning	violation	3	A	4	scene	outdoor	0	0.7918600250268355
214.4970812670072	1	learning	violation	3	B	4	scene	outdoor	1	0.7768885839614086
217.4970305719762	1	learning	violation	3	A	3	scene	indoor	0	1.151942685013637
220.4969980749884	1	learning	violation	3	B	3	scene	outdoor	1	0.5869784600217827
223.4969609049731	1	learning	nonviolation	2	A	53	scene	indoor	1	0.9200107380165718
226.49691506195813	1	learning	nonviolation	2	B	53	scene	outdoor	1	0.9440578000503592
229.4968891689787	1	learning	violation	2	A	8	scene	outdoor	1	0.7140888069989159
232.4968324449728	1	learning	violation	2	B	8	scene	indoor	1	0.8121452630148269
235.49679314298558	1	learning	nonviolation	3	A	52	scene	indoor	1	0.9151834630174562
238.49675088998632	1	learning	nonviolation	3	B	52	scene	outdoor	1	0.658231834997423
241.49672448798086	1	learning	nonviolation	3	A	49	scene	indoor	1	0.8082513050176203
244.4966830019839	1	learning	nonviolation	3	B	49	scene	indoor	1	0.9352407159749418
247.49664547300202	1	learning	nonviolation	3	A	53	scene	indoor	1	0.8163282719906421
250.49660305597354	1	learning	nonviolation	3	B	53	scene	outdoor	1	0.7733713880297728
253.4965628279606	1	learning	violation	4	A	1	scene	outdoor	1	0.8454192749923095
256.49651735596126	1	learning	violation	4	B	1	scene	outdoor	1	0.7913805870339274
259.4964822199545	1	learning	nonviolation	4	A	51	scene	indoor	1	0.9424945310456678
262.49644231697306	1	learning	nonviolation	4	B	51	scene	indoor	1	1.1625367579981685
265.49640295596333	1	learning	violation	3	A	7	scene	indoor	1	0.9005960010108538
268.4963649329729	1	learning	violation	3	B	7	scene	indoor	1	0.7986184679903091
271.4963155669975	1	learning	nonviolation	4	A	49	scene	indoor	1	0.6316635729745029
274.4962793109589	1	learning	nonviolation	4	B	49	scene	indoor	1	0.8777038560365327
277.49624866398517	1	learning	violation	3	A	5	scene	indoor	1	0.6396569790085778
280.4962042749976	1	learning	violation	3	B	5	scene	indoor	1	0.8357267009560019
283.49617107398814	1	learning	violation	3	A	6	scene	outdoor	1	0.751827021013014
286.49612844700465	1	learning	violation	3	B	6	scene	indoor	1	0.8448530869791284
289.4960855619865	1	restudy	violation	5	B	2	scene	outdoor	1	0.6638989960192703
292.4960382549907	1	learning	violation	4	A	3	scene	indoor	1	0.6949430569657125
295.4959990599891	1	learning	violation	4	B	3	scene	outdoor	1	0.572983184014447
298.495963666006	1	learning	violation	4	A	4	scene	outdoor	1	0.8290224639931694
301.49592026695615	1	learning	violation	4	B	4	scene	outdoor	1	0.5740156640531495
304.4958775439882	1	learning	nonviolation	4	A	50	scene	outdoor	1	0.5271025779657066
307.49584727099864	1	learning	nonviolation	4	B	50	scene	indoor	1	0.7881332049728371
310.49580799700925	1	learning	nonviolation	4	A	52	scene	indoor	1	1.0051724289660342
313.49576602200983	1	learning	nonviolation	4	B	52	scene	outdoor	1	0.6412174729630351
316.4957212919835	1	violation	violation	6	A	2	scene	indoor	1	0.7522667879820801
319.4956810709555	1	violation	violation	1	Y	2	face	male	1	0.964306177047547
322.4956441859831	1	learning	violation	4	A	6	scene	outdoor	1	1.0063413889729418
325.49560209299665	1	learning	violation	4	B	6	scene	indoor	1	0.8503842870122753
328.49555847095326	1	learning	violation	4	A	7	scene	indoor	1	0.7574303080327809
331.4955238410039	1	learning	violation	4	B	7	scene	indoor	1	0.5504657309502363
334.4954837379628	1	learning	nonviolation	4	A	53	scene	indoor	1	0.8335060420213267
337.49544470297405	1	learning	nonviolation	4	B	53	scene	outdoor	1	0.6835431680083275
340.4954087899532	1	restudy	nonviolation	5	B	51	scene	indoor	1	0.5985855190083385
343.49536383897066	1	restudy	nonviolation	5	B	50	scene	indoor	1	0.5276248970185407
346.4953402949613	1	learning	violation	3	A	8	scene	outdoor	1	0.5886533320299351
349.4952914599562	1	learning	violation	3	B	8	scene	indoor	1	0.667703009035904
352.4952482319786	1	violation	violation	5	A	3	scene	indoor	1	0.988694334984757
355.4952042689547	1	violation	violation	1	X	3	face	male	1	0.6897812940296717
358.4951710829628	1	violation	violation	5	A	4	scene	outdoor	1	0.8728219360345975
361.4951252730097	1	violation	violation	1	X	4	face	male	1	0.6568665179656819
364.49509496195236	1	restudy	nonviolation	6	B	51	scene	indoor	1	1.063896777050104
367.4950441389809	1	violation	violation	5	A	1	scene	outdoor	1	0.7359585040248929
370.495002414973	1	violation	violation	1	X	1	face	male	1	0.608989953994751
373.49497462995356	1	restudy	nonviolation	5	B	49	scene	indoor	1	0.6790217870147899
376.49493101798	1	restudy	violation	5	B	3	scene	outdoor	1	0.8040627929731272
379.4948994379956	1	learning	violation	4	A	5	scene	indoor	1	0.888090199965518
382.4948530590045	1	learning	violation	4	B	5	scene	indoor	1	0.9721417739638128
385.4948057479924	1	learning	violation	4	A	8	scene	outdoor	1	0.7031876550172456
388.49476597597817	1	learning	violation	4	B	8	scene	indoor	1	0.7932248180150054
391.4947258729952	1	learning	nonviolation	2	A	54	scene	outdoor	1	0.7052713639568537
394.49468516797066	1	learning	nonviolation	2	B	54	scene	outdoor	1	1.022306683997158
397.4946568539599	1	restudy	nonviolation	5	B	52	scene	outdoor	1	0.6923349560238421
400.494616838987	1	violation	violation	5	A	7	scene	indoor	1	0.8173754320014268
403.49456797895255	1	violation	violation	1	X	7	face	female	1	0.8074339600279927
406.4945271459874	1	violation	violation	5	A	6	scene	outdoor	1	0.7324730479740538
409.49448360200034	1	violation	violation	1	X	6	face	female	1	0.6255132280057296
412.4944472229689	1	violation	violation	6	A	3	scene	indoor	1	0.686549244041089
415.4944038160029	1	violation	violation	1	Y	3	face	male	1	0.6915983289945871
418.4943658089615	1	restudy	nonviolation	5	B	53	scene	outdoor	1	0.9186303190072068
421.4776561649632	1	restudy	violation	6	B	2	scene	outdoor	1	0.7053489779937081
424.4942865439807	1	violation	violation	5	A	5	scene	indoor	1	0.6597113989992067
427.49425975995837	1	violation	violation	1	X	5	face	female	1	0.8367370340274647
430.4942082599737	1	violation	violation	5	A	8	scene	outdoor	1	0.610789176018443
433.4941767109558	1	violation	violation	1	X	8	face	female	1	1.0338300230214372
436.4941297979676	1	learning	nonviolation	2	A	55	scene	outdoor	1	0.7418772790115327
439.4941240189946	1	learning	nonviolation	2	B	55	scene	indoor	1	1.1898808690020817
442.4773782009725	1	restudy	violation	5	B	1	scene	outdoor	1	0.5936252700048499
445.4773359879618	1	restudy	nonviolation	6	B	50	scene	indoor	1	0.7036681770114228
448.4772898409865	1	restudy	nonviolation	6	B	49	scene	indoor	1	0.6447083299863152
451.47724836895935	1	restudy	nonviolation	6	B	53	scene	outdoor	1	0.6657558770384641
454.477210409008	1	restudy	violation	5	B	4	scene	outdoor	1	0.5888023589504883
457.4771752579836	1	restudy	nonviolation	6	B	52	scene	outdoor	1	0.4798088030074723
460.4771423339844	1	learning	nonviolation	2	A	56	scene	outdoor	1	0.5728623169707134
463.4771031459677	1	learning	nonviolation	2	B	56	scene	outdoor	1	0.8418979049893096
466.4770584710059	1	restudy	violation	5	B	7	scene	indoor	1	0.6799458809546195
469.4770216409816	1	learning	nonviolation	3	A	54	scene	outdoor	1	0.6379961370257661
472.4769762119977	1	learning	nonviolation	3	B	54	scene	outdoor	1	0.7650359529652633
475.47694896097534	1	restudy	violation	5	B	6	scene	indoor	1	0.6790599069790915
478.47692789800936	1	violation	violation	6	A	4	scene	outdoor	1	0.5780792399891652
481.47686185495695	1	violation	violation	1	Y	4	face	male	n/a	n/a
484.4768212229829	1	violation	violation	6	A	7	scene	indoor	0	0.9961855720030144
487.47679219499696	1	violation	violation	1	Y	7	face	female	1	0.8790957389865071
490.4767402349971	1	restudy	violation	6	B	3	scene	outdoor	1	0.6722663039690815
493.4767139809555	1	learning	nonviolation	3	A	56	scene	outdoor	1	0.5633061140542851
496.476653967984	1	learning	nonviolation	3	B	56	scene	outdoor	1	0.6383591810008511
499.47662562900217	1	restudy	violation	5	B	8	scene	indoor	1	0.6473827019799501
502.4765925210085	1	learning	nonviolation	3	A	55	scene	outdoor	1	0.6784204349969514
505.4765500429785	1	learning	nonviolation	3	B	55	scene	indoor	1	0.8264652150101028
508.47651225398295	1	learning	nonviolation	4	A	56	scene	outdoor	1	0.5455004759714939
511.47646517597605	1	learning	nonviolation	4	B	56	scene	outdoor	1	0.5775456799892709
514.4764205070096	1	restudy	violation	5	B	5	scene	indoor	1	0.7475914379465394
517.476386891969	1	restudy	violation	6	B	4	scene	outdoor	1	0.6006289750221185
520.4763492649654	1	restudy	nonviolation	5	B	56	scene	outdoor	1	0.8266646509873681
523.4763135149842	1	violation	violation	6	A	1	scene	outdoor	1	0.9296948519768192
526.4762593919877	1	violation	violation	1	Y	1	face	male	1	1.1407562019885518
529.4762353439583	1	violation	violation	6	A	6	scene	outdoor	1	0.8057805600110441
532.476184004976	1	violation	violation	1	Y	6	face	female	1	0.8488331910339184
535.4761429249775	1	learning	nonviolation	4	A	54	scene	outdoor	1	0.79387339099776
538.4761068219668	1	learning	nonviolation	4	B	54	scene	outdoor	1	0.7349058869876899
541.4760638540029	1	learning	nonviolation	4	A	55	scene	outdoor	1	0.5369496140046977
544.4760236449656	1	learning	nonviolation	4	B	55	scene	indoor	1	0.7339890240109526
547.4759882990038	1	violation	violation	6	A	5	scene	indoor	1	0.651026755978819
550.4759528519935	1	violation	violation	1	Y	5	face	female	1	0.7130652189953253
553.4759047669941	1	violation	violation	6	A	8	scene	outdoor	1	0.7721266130101867
556.4758660369554	1	violation	violation	1	Y	8	face	female	1	0.6761508610215969
559.4758283749688	1	restudy	violation	6	B	1	scene	outdoor	1	0.6141852310393006
562.475794198981	1	restudy	violation	6	B	6	scene	indoor	1	0.9401753949932754
565.4757521059946	1	restudy	violation	6	B	5	scene	indoor	1	0.6142627070075832
568.4757183179609	1	restudy	violation	6	B	7	scene	indoor	1	0.7263002879917622
571.4756685390022	1	restudy	nonviolation	5	B	54	scene	outdoor	0	0.5573520669713616
574.47563032998	1	restudy	violation	6	B	8	scene	indoor	1	0.6943902610219084
577.4755895349663	1	restudy	nonviolation	5	B	55	scene	indoor	1	0.8043915790040046
580.4755573039873	1	restudy	nonviolation	6	B	54	scene	outdoor	1	1.1554605520213954
583.4755151779973	1	restudy	nonviolation	6	B	56	scene	outdoor	1	0.5725085759768263
586.4754799219662	1	restudy	nonviolation	6	B	55	scene	indoor	1	0.8385421110433526
