onset	duration	trial_type	condition	response_accuracy	response_time
13.508259211987026	2.5	A	nonviolation	1	1.0207547009922564
16.507760006003082	2.5	B	violation	1	1.8842612029984596
19.507711736980127	2.5	B	nonviolation	0	1.60430671001086
22.507667636004047	2.5	A	violation	1	1.0233501749753486
25.507628542982275	2.5	A	nonviolation	1	1.3723989610152785
28.50758960499661	2.5	A	violation	1	0.8604306619963609
31.507555178977785	2.5	A	nonviolation	1	1.041465087007964
34.50751456897706	2.5	B	nonviolation	1	1.0625065510103011
37.50746895198245	2.5	B	nonviolation	1	1.4385517619957682
40.50743034799235	2.5	B	nonviolation	0	1.4525940919993443
43.507400128990405	2.5	A	nonviolation	1	0.6446208450070117
46.507352023996646	2.5	A	violation	1	0.9336755230033305
49.50732260500081	2.5	B	violation	0	2.453698393976083
52.50727749199722	2.5	A	nonviolation	1	1.132744336995529
55.507244678999996	2.5	A	violation	1	1.5507128819881473
58.507203015004045	2.5	B	nonviolation	0	1.452820348989917
61.507153304992244	2.5	A	violation	1	0.9218643550120759
64.50711320398841	2.5	A	nonviolation	1	1.0019188559963368
67.50708268999006	2.5	A	violation	1	1.1119671339984052
70.50703048097785	2.5	A	nonviolation	1	1.0589978200150654
73.50699220297975	2.5	B	nonviolation	0	2.2320147050195374
76.50696422200417	2.5	A	nonviolation	1	1.0100669599778485
79.50691126700258	2.5	A	violation	1	1.0211171229893807
82.50687088799896	2.5	B	violation	n/a	n/a
85.50684099597856	2.5	A	violation	1	1.064198282023426
88.506794180983	2.5	B	nonviolation	1	1.2272349359991497
91.50675244600279	2.5	B	nonviolation	0	1.26227838799241
94.50671809198684	2.5	B	nonviolation	0	2.1963108479976654
97.50667363998946	2.5	B	violation	1	1.6013567030022386
100.5066390229913	2.5	B	violation	1	2.014392453012988
103.50660429897837	2.5	A	violation	1	1.7724355219979768
106.50655074897804	2.5	B	violation	n/a	n/a
109.50651549600298	2.5	A	nonviolation	1	2.4745177750010043
112.50647497898899	2.5	A	violation	1	0.7145742750144564
115.5064292489842	2.5	A	violation	1	1.0325790850038177
118.5063947729941	2.5	B	nonviolation	0	1.4136388300103135
121.5063506119768	2.5	B	nonviolation	0	1.0106885270215569
124.50630754098528	2.5	A	nonviolation	1	0.9027260979928542
127.50627347300178	2.5	B	violation	1	1.974770310975145
130.50623713198	2.5	A	violation	n/a	n/a
133.50619841198204	2.5	A	nonviolation	n/a	n/a
136.50615164698684	2.5	A	nonviolation	1	0.9708822329994292
139.50611236097757	2.5	B	violation	0	1.7599214220244903
142.5060655309935	2.5	B	nonviolation	0	1.897971211001277
145.50602989198524	2.5	B	violation	0	2.3550089420168656
148.5059859409812	2.5	B	violation	0	1.3030518240120728
151.50594899800492	2.5	B	violation	1	1.9350820529798511
154.5059107900015	2.5	B	violation	1	1.9301193849823903
157.50586954399478	2.5	B	violation	n/a	n/a
160.50582355097868	2.5	B	violation	1	1.51321088601253
163.5057893479825	2.5	B	nonviolation	1	1.3642528320197016
166.50574181799308	2.5	B	nonviolation	n/a	n/a
169.50570461997998	2.5	A	violation	1	1.3283389170246664
172.50566276998143	2.5	A	violation	1	1.1583820650121197
175.50562050897858	2.5	A	violation	1	0.8154166240128689
178.5055803379801	2.5	B	violation	n/a	n/a
181.50555265799633	2.5	B	nonviolation	n/a	n/a
184.50551449699557	2.5	A	violation	1	1.6885232430067845
187.50545813600186	2.5	A	violation	1	1.0375830190023407
190.50541956399684	2.5	B	violation	0	1.4255944149917923
193.50537985999838	2.5	B	violation	1	1.5176580789848233
196.50533876899866	2.5	B	violation	1	1.6307086529850494
199.50529861598625	2.5	B	violation	1	1.7497436120174823
202.50525587299492	2.5	A	violation	1	1.1117893159971572
205.5052185620006	2.5	A	nonviolation	n/a	n/a
208.5051755220047	2.5	A	nonviolation	1	0.6468695979856421
211.48846747897915	2.5	A	nonviolation	1	0.8605853750195821
214.48842508200326	2.5	B	violation	n/a	n/a
217.48838357598285	2.5	A	nonviolation	1	0.6636612919974141
220.48834474798056	2.5	A	nonviolation	1	0.8687060390075203
223.48830303299476	2.5	A	nonviolation	1	1.4187404029944446
226.48826184499194	2.5	A	violation	1	0.6427983790053986
229.4882233630051	2.5	A	nonviolation	1	1.2168300749908667
232.48818189700248	2.5	A	nonviolation	1	1.9678621689963618
235.48813951798363	2.5	A	nonviolation	1	1.63790281501133
238.488100246992	2.5	A	violation	1	1.1269452850101516
241.4880554899864	2.5	B	nonviolation	0	1.5249920990027022
244.4880154109851	2.5	B	violation	n/a	n/a
247.48797894199382	2.5	B	nonviolation	0	1.4860687099862844
250.48793698698864	2.5	B	nonviolation	1	1.426112966000801
253.48789732198932	2.5	B	violation	0	1.3431501869927158
256.48785811598646	2.5	B	nonviolation	0	1.738193499011686
259.48781210099696	2.5	A	nonviolation	0	1.4172380300005898
262.48778000299353	2.5	B	violation	1	2.096269714995288
265.48773673397955	2.5	B	violation	1	2.1623155040142588
268.48769242299016	2.5	A	violation	1	1.7073613659886178
271.4876597679977	2.5	B	nonviolation	1	1.5803944460058117
274.4876260809833	2.5	B	nonviolation	1	1.8654300890048037
277.48757411597757	2.5	B	nonviolation	n/a	n/a
280.4875287069881	2.5	A	nonviolation	n/a	n/a
283.487501718977	2.5	A	violation	1	0.7505598310090136
286.4874504549952	2.5	A	violation	1	0.7906047159922309
289.48741734199575	2.5	A	nonviolation	1	1.3956647040031385
292.48736992100015	2.5	B	nonviolation	n/a	n/a
295.4873234059778	2.5	A	violation	1	1.1437366610043682
298.48730310497916	2.5	B	nonviolation	0	1.3077804110071156
301.4872569589934	2.5	B	violation	0	2.1898006029950916
304.48720642298576	2.5	A	nonviolation	1	0.8018535590090323
307.4871821889828	2.5	B	nonviolation	0	1.032876862998819
310.48712496098597	2.5	B	nonviolation	1	1.3089351390080992
313.4871047149936	2.5	B	nonviolation	n/a	n/a
316.48704931300017	2.5	B	nonviolation	1	1.4170132339932024
319.48700668397936	2.5	A	nonviolation	1	1.2990530440001749
322.48696077297785	2.5	A	violation	1	1.1211008450191002
325.48692507098895	2.5	A	nonviolation	1	1.55412951100152
328.4868843939912	2.5	A	violation	n/a	n/a
331.4868446519831	2.5	B	violation	1	2.0132186220143917
334.4868100099848	2.5	B	violation	n/a	n/a
337.4867586479813	2.5	A	nonviolation	1	0.11430194400600158
340.4867211789824	2.5	B	violation	1	1.753335417015478
343.48668505900423	2.5	B	nonviolation	n/a	n/a
346.48663567498437	2.5	B	nonviolation	n/a	n/a
349.4866053859878	2.5	A	nonviolation	1	1.6114568659977522
352.48655978398165	2.5	B	nonviolation	1	1.6245064980175812
355.48652762098936	2.5	A	nonviolation	1	1.0745411940151826
358.4864702849882	2.5	A	nonviolation	1	0.9115937080059666
361.4864325399976	2.5	A	nonviolation	1	0.7346373939944897
364.486386568984	2.5	B	violation	n/a	n/a
367.4863595939824	2.5	A	nonviolation	1	0.7646794080210384
370.48631386898336	2.5	B	nonviolation	1	1.8907469419937115
373.48626698899903	2.5	A	violation	1	0.7318021709797904
376.4862265120028	2.5	A	violation	1	1.3728372099867556
379.48618513598916	2.5	A	violation	n/a	n/a
382.4861447799776	2.5	B	nonviolation	0	1.3579270740156062
385.4861085459997	2.5	B	violation	1	0.82894988800399
388.48606952599954	2.5	A	violation	n/a	n/a
391.4860282099981	2.5	B	nonviolation	1	1.8010328959790058
394.4859807329776	2.5	B	violation	0	2.0040851490048226
397.4859416199906	2.5	A	violation	1	0.8531307149969507
400.48590132099343	2.5	A	nonviolation	1	1.6181710420059972
403.48585676198127	2.5	B	violation	n/a	n/a
406.48582229300524	2.5	B	nonviolation	1	1.2982528189895677
409.4857868379913	2.5	B	violation	1	1.2062824160093442
412.4857413939899	2.5	B	violation	n/a	n/a
415.4856962859922	2.5	A	violation	1	1.719380995986285
418.48565589200007	2.5	B	violation	0	1.1674111809988972
421.48561747299385	2.5	A	nonviolation	1	1.096451678982703
424.4855790289877	2.5	A	violation	1	1.2904874829982873
427.4855376099877	2.5	A	violation	1	1.2535396399907768
430.4854960810044	2.5	B	violation	1	2.4335787979944143
433.4854613289936	2.5	B	nonviolation	0	1.066612909984542
436.4854136089852	2.5	A	nonviolation	1	1.5166545679967385
439.4853685379785	2.5	A	violation	1	1.1517057430173736
442.4853340019763	2.5	A	violation	1	1.6777412580267992
445.48528706099023	2.5	B	nonviolation	0	0.7357179989921859
448.48525378998596	2.5	A	nonviolation	1	0.7448201120132579
451.4852044659783	2.5	A	violation	1	1.1458695670007728
454.48516422498506	2.5	B	nonviolation	0	1.4209084610047285
457.48512728497735	2.5	A	nonviolation	n/a	n/a
460.48509139198	2.5	A	nonviolation	1	1.5119834970100785
463.4850416249829	2.5	A	nonviolation	1	1.8270354180131108
466.4850146999816	2.5	B	violation	n/a	n/a
469.48495926798205	2.5	B	violation	1	1.2571202210092451
472.4849338019849	2.5	B	violation	1	1.3731480830174403
475.4848765859788	2.5	A	violation	1	1.091199664020678
478.484841188998	2.5	B	nonviolation	n/a	n/a
481.48479149700137	2.5	A	nonviolation	1	1.266286437981762
484.4847596299951	2.5	A	violation	1	1.0433207199967
487.4847141779901	2.5	B	violation	0	1.2993644470116124
490.48467278698814	2.5	B	nonviolation	0	1.288408676016843
493.48464406398125	2.5	B	nonviolation	0	1.4014385010232218
496.48459131497657	2.5	B	nonviolation	1	1.2714900400023907
499.4845504719997	2.5	B	nonviolation	n/a	n/a
502.4845085339912	2.5	A	violation	1	1.7705719349905849
505.4844725739968	2.5	B	violation	1	1.835617436998291
508.48443054797826	2.5	A	nonviolation	1	0.8526542450126726
511.4843954129901	2.5	A	nonviolation	n/a	n/a
514.4843485220044	2.5	A	violation	1	1.790734275971772
517.4843032889767	2.5	B	violation	1	1.2747768490226008
520.4842621930002	2.5	A	violation	0	2.355826215993148
523.4842326459766	2.5	B	violation	0	1.7408555300207809
526.4841859769948	2.5	B	nonviolation	0	1.2978952050034422
529.4841443100013	2.5	B	violation	0	1.2349430180038323
532.4840984570037	2.5	B	violation	1	1.0419892449863255
535.4840570309898	2.5	A	violation	1	0.7959580899914727
538.4840257419854	2.5	B	violation	1	1.199060629005544
541.4839806889939	2.5	A	nonviolation	1	1.3310238049889451
544.4839395329764	2.5	B	nonviolation	1	1.052143791021081
547.4839033169848	2.5	A	nonviolation	1	0.8601909620047081
550.4838519729965	2.5	B	nonviolation	0	2.2182345879846253
553.4838228379958	2.5	A	violation	1	1.230262255994603
556.4837686939862	2.5	A	nonviolation	1	1.0023237800050993
559.4837352600007	2.5	A	nonviolation	n/a	n/a
562.4836939639936	2.5	B	violation	n/a	n/a
565.4836581389827	2.5	A	violation	1	0.9904313320002984
568.4836089710006	2.5	A	violation	1	0.6184781600022689
571.4835650079767	2.5	A	violation	1	1.3145295770082157
574.4835340729915	2.5	A	violation	1	0.7745573850115761
577.4834878389956	2.5	B	violation	1	1.56960551199154
580.4834450139897	2.5	A	nonviolation	n/a	n/a
583.4834124269837	2.5	B	nonviolation	1	1.9236855909985024
586.4833598429977	2.5	B	nonviolation	1	2.066735650994815
