onset	duration	trial_type	condition	repetition	pairmate	pairID	category	subcategory	response_accuracy	response_time
13.502465164288877	1	postlearning	nonviolation	7	B	94	scene	indoor	1	0.6901287138462067
16.502423241268843	1	postlearning	violation	7	B	33	scene	outdoor	1	0.5352466739714146
19.502386603970077	1	postlearning	violation	7	B	21	scene	indoor	1	0.5902900891378522
22.502352819312364	1	postlearning	nonviolation	7	B	88	scene	outdoor	1	0.529323189985007
25.502338781021532	1	postlearning	nonviolation	7	B	89	scene	outdoor	1	0.5373377101495862
28.502276164013892	1	postlearning	violation	7	B	7	scene	outdoor	0	0.6143175992183387
31.50223903125152	1	postlearning	nonviolation	7	B	67	scene	indoor	1	0.5434305407106876
34.502193610183895	1	postlearning	violation	7	B	30	scene	indoor	1	0.7204765910282731
37.502157579176135	1	postlearning	nonviolation	7	B	84	scene	outdoor	1	0.45952108176425105
40.50212595704943	1	postlearning	nonviolation	7	B	49	scene	indoor	1	0.5365459290333092
43.50208889693022	1	postlearning	violation	7	B	42	scene	outdoor	1	0.4445838392712176
46.50207569822669	1	postlearning	nonviolation	7	B	69	scene	outdoor	1	0.4576012757606805
49.50199548527598	1	postlearning	nonviolation	7	B	80	scene	indoor	1	0.5176846417598426
52.50197760201991	1	postlearning	violation	7	B	48	scene	outdoor	1	0.5426964592188597
55.50192279228941	1	postlearning	nonviolation	7	B	51	scene	outdoor	1	0.5437533077783883
58.50190782919526	1	postlearning	nonviolation	7	B	74	scene	outdoor	1	0.5287563959136605
61.50185281131417	1	postlearning	nonviolation	7	B	65	scene	indoor	1	0.6178273949772121
64.50182821415365	1	postlearning	violation	7	B	22	scene	outdoor	1	0.4868638208135962
67.50176546722649	1	postlearning	violation	7	B	47	scene	indoor	1	0.4929048996418714
70.50172651419416	1	postlearning	violation	7	B	23	scene	indoor	1	0.5409632688388228
73.5016890699044	1	postlearning	violation	7	B	43	scene	outdoor	1	0.5079909879714251
76.50166477123275	1	postlearning	nonviolation	7	B	72	scene	outdoor	1	0.5090103168040514
79.50163367623463	1	postlearning	nonviolation	7	B	58	scene	indoor	1	0.5400445419363678
82.50157874030992	1	postlearning	violation	7	B	25	scene	outdoor	1	0.4740979727357626
85.50153818400577	1	postlearning	nonviolation	7	B	73	scene	indoor	1	0.5871417769230902
88.50149196805431	1	postlearning	nonviolation	7	B	59	scene	outdoor	1	0.4701067819260061
91.50145579222591	1	postlearning	violation	7	B	44	scene	indoor	1	0.5142322238534689
94.50141573604195	1	postlearning	violation	7	B	40	scene	outdoor	1	0.5662650568410754
97.50139342527835	1	postlearning	nonviolation	7	B	54	scene	outdoor	1	0.5182856218889356
100.50134206889194	1	postlearning	nonviolation	7	B	62	scene	outdoor	1	0.4143363232724369
103.50131390523164	1	postlearning	violation	7	B	36	scene	indoor	1	0.4893829957582057
106.50126620102672	1	postlearning	nonviolation	7	B	78	scene	indoor	1	0.5824358868412673
109.50121670588852	1	postlearning	violation	7	B	13	scene	outdoor	1	0.4924672590568662
112.50118002388626	1	postlearning	violation	7	B	16	scene	indoor	1	0.5185000081546605
115.50114148994908	1	postlearning	violation	7	B	31	scene	indoor	1	0.5665414272807539
118.5010994193144	1	postlearning	nonviolation	7	B	92	scene	indoor	1	0.5105833746492863
121.50107011105864	1	postlearning	nonviolation	7	B	60	scene	indoor	1	0.7326228860765696
124.50101727619769	1	postlearning	violation	7	B	8	scene	outdoor	1	0.5455929338932037
127.50099852308632	1	postlearning	nonviolation	7	B	91	scene	indoor	1	0.5046621300280094
130.50094628008085	1	postlearning	nonviolation	7	B	50	scene	outdoor	1	0.5597368669696152
133.500902550295	1	postlearning	violation	7	B	37	scene	outdoor	1	0.6177034256979823
136.50086109898984	1	postlearning	nonviolation	7	B	93	scene	outdoor	1	0.5148275000974536
139.5008220961317	1	postlearning	violation	7	B	39	scene	indoor	1	0.5168412220664322
142.5007870430127	1	postlearning	nonviolation	7	B	86	scene	outdoor	1	0.5048992801457644
145.50076138507575	1	postlearning	nonviolation	7	B	75	scene	outdoor	1	0.5268760989420116
148.50071525201201	1	postlearning	violation	7	B	38	scene	outdoor	1	0.5609691170975566
151.50066559016702	1	postlearning	violation	7	B	46	scene	outdoor	1	0.5289674079976976
154.5006534969434	1	postlearning	nonviolation	7	B	76	scene	indoor	1	0.5810387879610062
157.50058866897595	1	postlearning	violation	7	B	28	scene	outdoor	1	0.5531071173027158
160.50055472226813	1	postlearning	violation	7	B	3	scene	indoor	1	0.5160639439709485
163.5005115759559	1	postlearning	nonviolation	7	B	55	scene	outdoor	1	0.5241288729012012
166.50047009717673	1	postlearning	violation	7	B	24	scene	outdoor	1	0.4722199561074376
169.50043601403013	1	postlearning	nonviolation	7	B	64	scene	indoor	1	0.6032557319849731
172.50039173709231	1	postlearning	violation	7	B	35	scene	indoor	1	0.6683077868074179
175.50034670205787	1	postlearning	nonviolation	7	B	63	scene	indoor	1	0.5832738238386811
178.5003091651015	1	postlearning	nonviolation	7	B	90	scene	outdoor	1	0.4783072997815907
181.5002733352594	1	postlearning	nonviolation	7	B	83	scene	indoor	1	0.5864208037965
184.50023536011574	1	postlearning	violation	7	B	4	scene	indoor	1	0.717459520790726
187.50019209412858	1	postlearning	violation	7	B	1	scene	indoor	1	0.6065095877274871
190.5001551960595	1	postlearning	nonviolation	7	B	56	scene	indoor	1	0.5825449549593031
193.5001149219461	1	postlearning	nonviolation	7	B	53	scene	indoor	1	0.4865594920702279
196.50007591908798	1	postlearning	violation	7	B	45	scene	indoor	1	0.5065895668230951
199.50004237797108	1	postlearning	violation	7	B	29	scene	indoor	1	0.4886538139544427
202.49999693594876	1	postlearning	nonviolation	7	B	79	scene	outdoor	1	0.5076924422755837
205.49995680013672	1	postlearning	nonviolation	7	B	87	scene	outdoor	1	0.5207349737174809
208.49991655908522	1	postlearning	nonviolation	7	B	70	scene	outdoor	1	0.5137131018564105
211.49988327827305	1	postlearning	nonviolation	7	B	61	scene	outdoor	1	0.5308000436052679
214.49983931006864	1	postlearning	nonviolation	7	B	71	scene	indoor	1	0.5418633888475597
217.49979793885723	1	postlearning	violation	7	B	26	scene	indoor	1	0.5888979570008814
220.4997581820935	1	postlearning	nonviolation	7	B	66	scene	indoor	1	0.4649390131235122
223.49971796106547	1	postlearning	violation	7	B	6	scene	outdoor	1	0.5899808071553707
226.49967881524933	1	postlearning	nonviolation	7	B	57	scene	outdoor	1	0.5759660028852522
229.49963543610644	1	postlearning	violation	7	B	19	scene	outdoor	1	0.70500353211537
232.49959672801202	1	postlearning	violation	7	B	14	scene	indoor	1	0.5790906152687967
235.4995741089806	1	postlearning	violation	7	B	5	scene	indoor	1	0.5631219549104571
238.49951558420437	1	postlearning	violation	7	B	27	scene	outdoor	1	0.4871740508824587
241.49947813618928	1	postlearning	nonviolation	7	B	52	scene	indoor	1	0.5761695438995957
244.49946729606015	1	postlearning	violation	7	B	9	scene	outdoor	1	0.5151757718995214
247.49939289316532	1	postlearning	violation	7	B	20	scene	indoor	1	0.5852396218106151
250.49937421502545	1	postlearning	nonviolation	7	B	81	scene	indoor	1	0.6523160440847278
253.49933353206143	1	postlearning	violation	7	B	11	scene	outdoor	1	0.6363560189493
256.4992736862041	1	postlearning	violation	7	B	34	scene	indoor	1	0.5994361019693315
259.49925178522244	1	postlearning	nonviolation	7	B	82	scene	indoor	1	0.5424686237238348
262.49921270925546	1	postlearning	nonviolation	7	B	68	scene	outdoor	1	0.4274752200581133
265.4991545998492	1	postlearning	violation	7	B	17	scene	indoor	1	0.7225654143840075
268.4991273051128	1	postlearning	nonviolation	7	B	85	scene	indoor	1	0.7895784941501915
271.4990866528824	1	postlearning	nonviolation	7	B	77	scene	outdoor	1	0.5775369172915816
274.49905872298405	1	postlearning	violation	7	B	41	scene	indoor	1	0.5616653133183718
277.49900612607604	1	postlearning	violation	7	B	12	scene	indoor	1	0.5337051898241043
280.49897241825244	1	postlearning	violation	7	B	2	scene	outdoor	1	0.6887377696111798
283.4989291001111	1	postlearning	nonviolation	7	B	95	scene	outdoor	1	0.492789854761213
286.4988994230516	1	postlearning	violation	7	B	15	scene	indoor	1	0.4678181959316135
289.49885000893846	1	postlearning	violation	7	B	32	scene	outdoor	1	0.5238599791191518
292.49881599331275	1	postlearning	violation	7	B	18	scene	outdoor	1	0.8008895418606699
295.4987671081908	1	postlearning	violation	7	B	10	scene	outdoor	1	0.7039420930668712
298.49873225297785	1	postlearning	nonviolation	7	B	96	scene	indoor	0	0.8109801718965173
