onset	duration	trial_type	subcategory	response_accuracy	response_time
13.508439305005595	0.5	object	natural	1	0.5393818239681423
15.008414904936217	0.5	object	manmade	1	0.9224073790246621
16.50853518396616	0.5	object	natural	1	0.6072620690101758
18.008372840937227	0.5	object	manmade	1	0.5704623010242358
19.508352329023182	0.5	object	natural	n/a	n/a
21.00833480095025	0.5	object	natural	1	0.8974854180123657
22.50831549591385	0.5	object	natural	n/a	n/a
24.0082980459556	0.5	object	manmade	1	0.9055273840203881
25.508282079943456	0.5	object	manmade	1	0.7615532079944387
27.00826147198677	0.5	object	manmade	1	0.5375662939622998
43.508034500991926	0.5	face	male	1	0.5257931519299746
45.008015182917006	0.5	face	male	1	0.42282160103786737
46.507999895955436	0.5	face	male	1	0.44682296295650303
48.00797907996457	0.5	face	male	1	0.3548522910568863
49.50795657990966	0.5	face	female	1	0.4568743359996006
51.00793551595416	0.5	face	female	1	0.3508925640489906
52.507914967951365	0.5	face	female	1	0.3709212680114433
54.00789672299288	0.5	face	male	1	0.3529336729552597
55.50787378195673	0.5	face	female	1	0.45495387096889317
57.00785941700451	0.5	face	female	1	0.4539069349411875
73.50764101999812	0.5	scene	outdoor	1	0.5721905999816954
75.0076257030014	0.5	scene	indoor	1	0.603207231964916
76.50761233398225	0.5	scene	indoor	1	0.5382169670192525
78.00757473299745	0.5	scene	outdoor	1	0.5262610039208084
79.50756990595255	0.5	scene	indoor	1	0.688261236064136
81.00753739592619	0.5	scene	outdoor	1	0.6122917360626161
82.50752324901987	0.5	scene	outdoor	1	0.5263098229188472
84.00749570399057	0.5	scene	outdoor	1	0.7293385090306401
85.50747675797902	0.5	scene	indoor	1	0.5393541590310633
87.00745388201904	0.5	scene	indoor	1	0.6273823879892007
103.50724637694657	0.5	scene	outdoor	1	0.44659232604317367
105.00722502695862	0.5	scene	outdoor	1	0.41660856700036675
106.50719490798656	0.5	scene	indoor	0	0.4836420409847051
108.0071776380064	0.5	scene	indoor	0	0.6725333729991689
109.5071641249815	0.5	scene	outdoor	1	0.6646719099953771
111.00713604898192	0.5	scene	indoor	1	0.7117027209606022
112.5071161169326	0.5	scene	indoor	1	0.6537262640194967
114.00709669198841	0.5	scene	indoor	1	0.9577382989227772
115.50707797100767	0.5	scene	outdoor	1	0.5737547599710524
117.00705536094029	0.5	scene	outdoor	1	0.9737905099755153
133.50683199393097	0.5	object	natural	1	0.7460079800803214
135.0068205409916	0.5	object	natural	1	0.6770181119209155
136.5067925049225	0.5	object	manmade	1	0.5050461860373616
138.0067728619324	0.5	object	natural	1	0.5910684689879417
139.50675772200339	0.5	object	manmade	1	0.7070813339669257
141.00673446292058	0.5	object	manmade	1	0.7320877599995583
142.50671246892307	0.5	object	natural	1	0.56812702503521
144.0066937279189	0.5	object	manmade	1	0.5731431150343269
145.50667301693466	0.5	object	natural	1	0.5941649730084464
147.00665360700805	0.5	object	manmade	1	0.8421875649364665
163.50643171591219	0.5	object	natural	1	0.6624098250176758
165.0064143659547	0.5	object	manmade	1	0.6764354220358655
166.50639051292092	0.5	object	natural	1	0.5604562649969012
168.00637576694135	0.5	object	manmade	1	0.6814666630234569
169.5063533670036	0.5	object	manmade	1	0.5684950429713354
171.00634003500454	0.5	object	natural	1	0.6064995899796486
172.50632114394102	0.5	object	natural	1	0.5214701449731365
174.00629067292903	0.5	object	manmade	1	0.5894876270322129
175.50627349701244	0.5	object	manmade	1	0.7815678819315508
177.00625626696274	0.5	object	natural	1	0.5565920890076086
193.50603597494774	0.5	object	manmade	1	0.4568053260445595
195.0060135119129	0.5	object	manmade	1	0.5448312850203365
196.50598983897362	0.5	object	manmade	1	0.837854437995702
198.00597579299938	0.5	object	manmade	1	0.4618435639422387
199.5059880699264	0.5	object	manmade	1	0.5028605810366571
201.00592878996395	0.5	object	natural	1	0.48691683902870864
202.50590937701054	0.5	object	natural	1	0.9799424269003794
204.00588872400112	0.5	object	natural	1	0.5769527949159965
205.50586915400345	0.5	object	natural	1	0.8229829689953476
207.00584989401978	0.5	object	natural	1	0.4530130549101159
223.50563037698157	0.5	face	female	1	0.34209935599938035
225.00561721192207	0.5	face	male	1	0.3912292590830475
226.48891678301152	0.5	face	male	1	0.40693170099984854
227.98888808698393	0.5	face	female	1	0.4599599000066519
229.4888760310132	0.5	face	female	1	0.45097583800088614
230.98884978692513	0.5	face	female	1	0.44200524408370256
232.48882890399545	0.5	face	male	1	0.4590216389624402
233.98880856193136	0.5	face	female	1	0.5420507680391893
235.48878695792519	0.5	face	male	1	0.5940671809948981
236.9887694090139	0.5	face	male	1	0.4970864719944075
253.4885532349581	0.5	object	natural	0	0.8753005519974977
254.988536498975	0.5	object	manmade	1	0.5313187199644744
256.4885246809572	0.5	object	manmade	1	0.5283276690170169
257.9884955509333	0.5	object	natural	1	0.5213593280641362
259.4884778979467	0.5	object	natural	1	0.4443745060125366
260.9884540649364	0.5	object	manmade	1	0.5894246180541813
262.4884324269369	0.5	object	manmade	1	0.5364179849857464
263.9884090019623	0.5	object	natural	1	0.492449147044681
265.4883922479348	0.5	object	natural	1	0.5084664470050484
266.9883789559826	0.5	object	manmade	1	0.5574784310301766
283.4881511249114	0.5	face	female	1	0.3097083590691909
284.9881282040151	0.5	face	male	1	0.5047334679402411
286.4881297759712	0.5	face	male	1	0.46272702794522047
287.9880918000126	0.5	face	female	1	0.4777025069342926
289.48807101894636	0.5	face	male	0	0.7217876709764823
290.98805081495084	0.5	face	female	1	0.5076861929846928
292.4880316000199	0.5	face	male	1	0.3948236199794337
293.9880146809155	0.5	face	female	1	0.585778572014533
295.48799441894516	0.5	face	female	1	0.4818646420026198
296.98796997696627	0.5	face	male	1	0.43881545797921717
313.4877493639942	0.5	face	male	1	0.5051116429967806
314.9877372519113	0.5	face	male	1	0.44613096804823726
316.4877452279907	0.5	face	female	1	0.3441167250275612
317.9876878259238	0.5	face	female	1	0.3281742160907015
319.48766795697156	0.5	face	female	1	0.42319214798044413
320.9876629629871	0.5	face	female	1	0.5072081099497154
322.4876291619148	0.5	face	male	1	0.5221767290495336
323.98762658191845	0.5	face	female	1	0.5982300230534747
325.4875920090126	0.5	face	male	1	0.5492722289636731
326.987567647011	0.5	face	male	1	0.5182954699266702
343.48734367999714	0.5	face	male	1	0.47352452494669706
344.9873255440034	0.5	face	male	1	0.40053700690623373
346.4911582819186	0.5	face	male	1	0.40473018307238817
347.98729183897376	0.5	face	female	1	0.5755794839933515
349.48726501793135	0.5	face	male	1	0.732599757029675
350.9872520569479	0.5	face	female	1	0.5576171090360731
352.4872232680209	0.5	face	female	1	0.5276440179441124
353.98720329697244	0.5	face	male	1	0.6726603109855205
355.48720366100315	0.5	face	female	1	0.5176608299370855
356.98716461495496	0.5	face	female	1	0.56770208501257
373.4869436909212	0.5	scene	indoor	1	0.5559242690214887
374.98692298994865	0.5	scene	outdoor	1	0.5469484990462661
376.49076166097075	0.5	scene	outdoor	1	0.9371077009709552
377.98688852600753	0.5	scene	indoor	1	0.56398088298738
379.4868654269958	0.5	scene	indoor	1	0.5410003419965506
380.98684541799594	0.5	scene	outdoor	1	0.6780238099163398
382.4868241789518	0.5	scene	outdoor	1	0.7550477900076658
383.98680936999153	0.5	scene	indoor	1	0.5420631170272827
385.4867853159085	0.5	scene	indoor	0	0.6060852380469441
386.9867709589889	0.5	scene	outdoor	1	0.49109958100598305
403.4865507639479	0.5	scene	outdoor	1	0.7253201729618013
404.98651825194247	0.5	scene	indoor	0	0.6263579049846157
406.4881317889085	0.5	scene	indoor	1	0.5177417820086703
407.98648645193316	0.5	scene	outdoor	1	0.8803921120706946
409.4864633929683	0.5	scene	outdoor	1	0.5254116510041058
410.9864511929918	0.5	scene	outdoor	1	0.5993668149458244
412.4864241639152	0.5	scene	indoor	1	0.5784492189995944
413.98639744799584	0.5	scene	indoor	1	0.5244759059278294
415.4863780459855	0.5	scene	indoor	1	0.5155002509709448
416.98635874595493	0.5	scene	outdoor	1	0.5945132479537278
433.4861404619878	0.5	scene	indoor	0	0.3407348559703678
434.98612732300535	0.5	scene	outdoor	1	0.41875071392860264
436.4865218249615	0.5	scene	outdoor	1	0.5253575909882784
437.9860758529976	0.5	scene	indoor	1	0.6507978729205206
439.48605971201323	0.5	scene	indoor	1	0.596822724910453
440.9860367299989	0.5	scene	outdoor	1	0.49184577399864793
442.4860192799242	0.5	scene	outdoor	1	0.5358626689994708
443.9859940329334	0.5	scene	indoor	1	0.683857858995907
445.48597522696946	0.5	scene	outdoor	1	0.4737872739788145
446.98596275202	0.5	scene	indoor	1	0.5309230579296127
