onset	duration	trial_type	condition	repetition	pairmate	pairID	category	subcategory	response_accuracy	response_time
13.513663690537214	1	prelearning	violation	1	B	15	scene	outdoor	1	0.5174554511904716
16.513621560297903	1	prelearning	nonviolation	1	A	63	scene	outdoor	1	0.5694963866844773
19.513582782819867	1	prelearning	nonviolation	1	B	60	scene	outdoor	0	0.4615402230992913
22.51354141067713	1	prelearning	nonviolation	1	B	62	scene	indoor	1	0.4515745807439089
25.513501949608326	1	prelearning	nonviolation	1	A	61	scene	outdoor	1	0.4736171755939722
28.513461953960363	1	prelearning	violation	1	A	10	scene	indoor	1	0.42972627375274897
31.51342172082514	1	prelearning	nonviolation	1	A	59	scene	indoor	1	0.4426906788721681
34.51338120922446	1	prelearning	violation	1	A	13	scene	indoor	1	0.4567493693903089
37.496745120733976	1	prelearning	violation	1	A	15	scene	outdoor	1	0.3703797245398164
40.496631148271256	1	prelearning	nonviolation	1	A	60	scene	indoor	1	0.4764907592907548
43.49659030139446	1	prelearning	nonviolation	1	B	64	scene	outdoor	1	0.4285335903987289
46.4965764163062	1	prelearning	nonviolation	1	B	58	scene	outdoor	0	0.4535431116819382
49.513179776258774	1	prelearning	nonviolation	1	B	63	scene	indoor	1	0.5639416957274079
52.496469263918705	1	prelearning	violation	1	B	11	scene	indoor	1	0.5026523908600211
55.49642863124609	1	prelearning	nonviolation	1	B	61	scene	indoor	1	0.5297758737578988
58.496390857733786	1	prelearning	violation	1	B	9	scene	outdoor	1	0.4337385343387723
61.49634860176593	1	prelearning	nonviolation	1	B	57	scene	outdoor	1	0.4957582866773009
64.49631026014686	1	prelearning	nonviolation	1	A	64	scene	indoor	1	0.4468172565102577
67.49631352815778	1	prelearning	violation	1	B	10	scene	outdoor	1	0.5538653759285808
70.49622681830078	1	prelearning	nonviolation	1	A	57	scene	outdoor	1	0.443898999132216
73.4961846312508	1	prelearning	violation	1	B	13	scene	indoor	1	0.3839418971911073
76.49614563956855	1	prelearning	nonviolation	1	A	58	scene	outdoor	1	0.500871486030519
79.49610722344369	1	prelearning	nonviolation	1	A	62	scene	indoor	1	0.7690197303891182
82.49606357421726	1	prelearning	violation	1	B	16	scene	indoor	1	0.5180841600522399
85.49602247029544	1	prelearning	nonviolation	1	B	59	scene	indoor	1	0.656109094619751
88.49598575290295	1	prelearning	violation	1	A	12	scene	outdoor	1	0.4131386652588844
91.49594371765852	1	prelearning	violation	1	A	16	scene	outdoor	1	0.5431842310354114
94.49590286333115	1	prelearning	violation	1	B	14	scene	outdoor	1	0.496243828907609
97.49586040060969	1	prelearning	violation	1	B	12	scene	indoor	1	0.4062733817845583
100.495819224976	1	prelearning	violation	1	A	14	scene	indoor	1	0.44833101984113455
103.49578019231558	1	prelearning	violation	1	A	11	scene	indoor	1	0.4063594341278076
106.4957450563088	1	prelearning	violation	1	A	9	scene	outdoor	1	0.4843853367492557
109.49569892324509	1	learning	nonviolation	2	A	57	scene	outdoor	1	0.4714336562901735
112.49566389806569	1	learning	nonviolation	2	B	57	scene	outdoor	1	0.498462850227952
115.49561746139081	1	learning	violation	2	A	9	scene	outdoor	1	0.4395157638937235
118.49557660613206	1	learning	violation	2	B	9	scene	outdoor	1	0.4414896611124277
121.4955354947597	1	learning	nonviolation	2	A	58	scene	outdoor	1	0.4525941777974367
124.49549473822115	1	learning	nonviolation	2	B	58	scene	outdoor	1	0.5886425888165832
127.49545390531419	1	learning	violation	2	A	10	scene	indoor	1	0.4206809718161821
130.49541261419654	1	learning	violation	2	B	10	scene	outdoor	1	0.5047414600849152
133.49536966904998	1	learning	nonviolation	3	A	57	scene	outdoor	1	0.4807727392762899
136.49533055815846	1	learning	nonviolation	3	B	57	scene	outdoor	1	0.4178028842434287
139.49528955295682	1	learning	violation	3	A	9	scene	outdoor	1	0.4688487192615866
142.4952487051487	1	learning	violation	3	B	9	scene	outdoor	1	0.4348843861371279
145.49520999286327	1	learning	nonviolation	3	A	58	scene	outdoor	1	0.5389353269711137
148.49516478739682	1	learning	nonviolation	3	B	58	scene	outdoor	1	0.4170217635110021
151.495126593858	1	learning	violation	2	A	11	scene	indoor	1	0.5270053241401911
154.4950826363638	1	learning	violation	2	B	11	scene	indoor	1	0.4090708829462528
157.49504357296973	1	learning	violation	2	A	12	scene	outdoor	1	0.4730221088975668
160.49500280525538	1	learning	violation	2	B	12	scene	indoor	1	0.4401401272043586
163.49496176466346	1	learning	violation	2	A	13	scene	indoor	1	0.6022122232243419
166.49492052569985	1	learning	violation	2	B	13	scene	indoor	1	0.4432972278445959
169.4948795530945	1	learning	nonviolation	2	A	59	scene	indoor	1	0.4492794685065746
172.49483906198293	1	learning	nonviolation	2	B	59	scene	indoor	1	0.6421914109960198
175.494797360152	1	learning	violation	3	A	11	scene	indoor	1	0.4763424517586827
178.49475618079305	1	learning	violation	3	B	11	scene	indoor	1	0.4243875006213784
181.49471588246524	1	learning	nonviolation	2	A	60	scene	indoor	1	0.5184261463582516
184.4946723878384	1	learning	nonviolation	2	B	60	scene	outdoor	1	0.7104702182114124
187.49463079404086	1	learning	violation	4	A	9	scene	outdoor	1	0.4475164962932468
190.49459213670346	1	learning	violation	4	B	9	scene	outdoor	1	0.4045484010130167
193.494550880976	1	learning	violation	3	A	13	scene	indoor	1	0.4995948653668165
196.4945117896423	1	learning	violation	3	B	13	scene	indoor	1	0.4436386749148369
199.4944663280621	1	learning	nonviolation	2	A	61	scene	outdoor	1	0.4766780147328973
202.49442748632282	1	learning	nonviolation	2	B	61	scene	indoor	1	0.5447095390409231
205.4943865258247	1	learning	nonviolation	3	A	59	scene	indoor	1	0.533752927556634
208.49434535205364	1	learning	nonviolation	3	B	59	scene	indoor	1	0.5698061380535364
211.49431241862482	1	learning	nonviolation	2	A	62	scene	indoor	1	0.4238295676186681
214.49426294304433	1	learning	nonviolation	2	B	62	scene	indoor	1	0.4618781488388777
217.49422310758385	1	learning	violation	4	A	11	scene	indoor	1	0.3699378864839673
220.4941801503301	1	learning	violation	4	B	11	scene	indoor	1	0.4839692320674658
223.49414496216926	1	learning	violation	3	A	12	scene	outdoor	1	0.5769996531307697
226.4940982442349	1	learning	violation	3	B	12	scene	indoor	1	0.6110492916777729
229.49405683763325	1	learning	violation	3	A	10	scene	indoor	1	0.4510953538119793
232.4940158696845	1	learning	violation	3	B	10	scene	outdoor	1	0.5201352145522833
235.4939744938165	1	learning	nonviolation	4	A	58	scene	outdoor	1	0.3771768622100353
238.49393111653626	1	learning	nonviolation	4	B	58	scene	outdoor	1	0.4892223477363586
241.49389103427532	1	learning	nonviolation	3	A	62	scene	indoor	1	0.5002979570999742
244.49385202582928	1	learning	nonviolation	3	B	62	scene	indoor	1	0.5223028380423784
247.49380956497043	1	learning	nonviolation	3	A	60	scene	indoor	1	0.5323479194194078
250.49376882240173	1	learning	nonviolation	3	B	60	scene	outdoor	0	0.42738039791584015
253.4937251154333	1	learning	violation	4	A	13	scene	indoor	1	0.4974326835945249
256.49368606507784	1	learning	violation	4	B	13	scene	indoor	1	0.5194719787687063
259.493645042181	1	learning	nonviolation	4	A	57	scene	outdoor	1	0.5505212694406509
262.49360407423234	1	learning	nonviolation	4	B	57	scene	outdoor	1	0.5665491987019777
265.4935623006895	1	violation	violation	5	A	11	scene	indoor	1	0.6795937661081553
268.4935209546238	1	violation	violation	1	X	11	face	female	1	0.7146515659987926
271.4934798274189	1	restudy	nonviolation	5	B	58	scene	outdoor	1	0.4976682728156448
274.49343858100474	1	violation	violation	5	A	9	scene	outdoor	1	0.5567113254219294
277.4933952288702	1	violation	violation	1	X	9	face	male	1	0.4997549559921026
280.4933559326455	1	restudy	nonviolation	5	B	57	scene	outdoor	1	0.5038046343252063
283.49331542570144	1	learning	violation	4	A	12	scene	outdoor	1	0.5298378271982074
286.49327170383185	1	learning	violation	4	B	12	scene	indoor	1	0.5088592469692229
289.49323125835514	1	learning	nonviolation	4	A	59	scene	indoor	1	0.5779292369261384
292.4931906461716	1	learning	nonviolation	4	B	59	scene	indoor	1	0.6129672657698393
295.4931496651843	1	learning	nonviolation	3	A	61	scene	outdoor	1	0.5110170627012849
298.4931067097932	1	learning	nonviolation	3	B	61	scene	indoor	1	0.5120501220226288
301.49306519608945	1	learning	nonviolation	2	A	63	scene	outdoor	1	0.5180871710181236
304.4930256921798	1	learning	nonviolation	2	B	63	scene	indoor	1	0.5141365583986044
307.49298450630164	1	restudy	violation	5	B	9	scene	outdoor	1	0.5791799258440733
310.4929431322962	1	restudy	violation	5	B	11	scene	indoor	1	0.5102132530882955
313.4929022621364	1	learning	violation	4	A	10	scene	indoor	1	0.42125581484287977
316.4928602892905	1	learning	violation	4	B	10	scene	outdoor	1	0.4913122123107314
319.49281935114413	1	violation	violation	6	A	9	scene	outdoor	1	0.6063400069251657
322.4927783161402	1	violation	violation	1	Y	9	face	male	1	0.6233761720359325
325.49274433311075	1	learning	nonviolation	4	A	60	scene	indoor	1	0.5074125220999122
328.4926937427372	1	learning	nonviolation	4	B	60	scene	outdoor	1	0.6734675690531731
331.4926542937756	1	learning	nonviolation	4	A	61	scene	outdoor	1	0.4863755758851767
334.4926131758839	1	learning	nonviolation	4	B	61	scene	indoor	1	0.4695486901327968
337.492572019808	1	restudy	nonviolation	6	B	57	scene	outdoor	1	0.4335141237825155
340.49253033008426	1	learning	nonviolation	4	A	62	scene	indoor	1	0.4405707158148289
343.4924951074645	1	learning	nonviolation	4	B	62	scene	indoor	1	0.5156635921448469
346.4924473902211	1	violation	violation	5	A	13	scene	indoor	1	0.539650971069932
349.49241446703667	1	violation	violation	1	X	13	face	female	1	0.5607433980330825
352.4923647949472	1	violation	violation	5	A	10	scene	indoor	1	0.5998024102300406
355.4923237394541	1	violation	violation	1	X	10	face	male	1	0.4668109770864248
358.492281243205	1	restudy	nonviolation	6	B	58	scene	outdoor	1	0.5988897364586592
361.49223784357315	1	learning	violation	2	A	14	scene	indoor	1	0.5258463462814689
364.49219738040114	1	learning	violation	2	B	14	scene	outdoor	1	0.4889714242890477
367.49215804785484	1	learning	violation	2	A	15	scene	outdoor	1	0.4800160117447376
370.4921173658222	1	learning	violation	2	B	15	scene	outdoor	1	0.5669736340641975
373.4920754861088	1	learning	nonviolation	3	A	63	scene	outdoor	1	0.5060962801799178
376.4920344557613	1	learning	nonviolation	3	B	63	scene	indoor	1	0.5451360633596778
379.4919933117926	1	learning	violation	2	A	16	scene	outdoor	1	0.44216965790838
382.4919521212578	1	learning	violation	2	B	16	scene	indoor	1	0.5072114765644073
385.49190811906016	1	restudy	violation	6	B	9	scene	outdoor	1	0.4352568509057164
388.49187455885107	1	violation	violation	5	A	12	scene	outdoor	1	0.5032911617308855
391.49182759597903	1	violation	violation	1	X	12	face	female	1	0.5183413987979293
394.4917849591002	1	restudy	nonviolation	5	B	59	scene	indoor	1	0.6643851129338145
397.4917455278337	1	restudy	nonviolation	5	B	61	scene	indoor	1	0.6044203722849488
400.4917043894529	1	restudy	nonviolation	5	B	60	scene	outdoor	1	0.6744579058140516
403.491668025963	1	violation	violation	6	A	11	scene	indoor	1	0.5635016961023211
406.49162017833436	1	violation	violation	1	Y	11	face	female	1	0.5435451725497842
409.49158029537654	1	learning	violation	3	A	15	scene	outdoor	1	0.5315904188901186
412.49153872579336	1	learning	violation	3	B	15	scene	outdoor	1	0.5296298954635859
415.491497470066	1	restudy	nonviolation	6	B	60	scene	outdoor	1	0.5746622122824192
418.49145688768476	1	restudy	nonviolation	6	B	61	scene	indoor	1	0.5527160922065377
421.49141531903297	1	restudy	nonviolation	5	B	62	scene	indoor	1	1.090760177001357
424.4913737941532	1	restudy	violation	5	B	10	scene	outdoor	1	0.5978114465251565
427.49133219476784	1	learning	violation	3	A	14	scene	indoor	1	0.5177627494558692
430.4912893520668	1	learning	violation	3	B	14	scene	outdoor	1	0.5178815331310034
433.49125041160727	1	learning	nonviolation	2	A	64	scene	indoor	1	0.5549223879352212
436.4912089733407	1	learning	nonviolation	2	B	64	scene	outdoor	1	0.5049581862986088
439.49116536416113	1	learning	violation	3	A	16	scene	outdoor	1	0.5170052060857415
442.49112642556435	1	learning	violation	3	B	16	scene	indoor	1	0.5470477920025587
445.49108457565313	1	restudy	violation	5	B	13	scene	indoor	1	0.4500967776402831
448.49104201141745	1	restudy	nonviolation	6	B	59	scene	indoor	1	0.4511307775974274
451.491011957638	1	learning	nonviolation	4	A	63	scene	outdoor	1	0.5601090984418988
454.4909591358155	1	learning	nonviolation	4	B	63	scene	indoor	1	0.5632181400433183
457.49091713037336	1	learning	violation	4	A	15	scene	outdoor	1	0.521266502328217
460.4908784609288	1	learning	violation	4	B	15	scene	outdoor	1	0.5733222393319011
463.4908350836485	1	learning	nonviolation	3	A	64	scene	indoor	1	0.5093698976561427
466.49079580605036	1	learning	nonviolation	3	B	64	scene	outdoor	1	0.529391554184258
469.4740879805759	1	violation	violation	6	A	10	scene	indoor	1	0.4890904230996966
472.49071222078055	1	violation	violation	1	Y	10	face	male	1	0.5104921488091351
475.4906709399074	1	restudy	violation	5	B	12	scene	indoor	1	0.459514694288373
478.4906304813922	1	restudy	violation	6	B	11	scene	indoor	1	0.4205508539453149
481.49058863334363	1	learning	nonviolation	4	A	64	scene	indoor	1	0.4635895350947976
484.4738782597707	1	learning	nonviolation	4	B	64	scene	outdoor	1	0.4302981561049819
487.47384308744216	1	restudy	nonviolation	6	B	62	scene	indoor	1	0.4623424718156457
490.47379581630236	1	learning	violation	4	A	14	scene	indoor	1	0.5953822294250131
493.4737544702366	1	learning	violation	4	B	14	scene	outdoor	1	0.4884214960038662
496.473713205196	1	violation	violation	6	A	13	scene	indoor	1	0.4583880417048931
499.47367169056093	1	violation	violation	1	Y	13	face	female	1	0.5655085816979408
502.47363041806966	1	restudy	nonviolation	5	B	64	scene	outdoor	1	0.5165566578507423
505.47359007876366	1	learning	violation	4	A	16	scene	outdoor	1	0.5115803740918636
508.4735484886914	1	learning	violation	4	B	16	scene	indoor	1	0.48363548237830395
511.47351002786314	1	restudy	violation	6	B	10	scene	outdoor	1	0.5516699673607945
514.4734686510637	1	restudy	nonviolation	5	B	63	scene	indoor	1	0.5387139124795794
517.4734269287437	1	violation	violation	5	A	16	scene	outdoor	1	0.4617586946114898
520.4733840739354	1	violation	violation	1	X	16	face	female	1	0.5388009613379836
523.4733442720027	1	violation	violation	5	A	15	scene	outdoor	1	0.527919813990593
526.4733029976487	1	violation	violation	1	X	15	face	male	1	0.5788784120231867
529.473259520717	1	restudy	nonviolation	6	B	64	scene	outdoor	1	0.5189533969387412
532.4732202347368	1	restudy	violation	5	B	16	scene	indoor	1	0.5439765639603138
535.4731790786609	1	restudy	nonviolation	6	B	63	scene	indoor	1	0.4730078037828207
538.4731376925483	1	violation	violation	5	A	14	scene	indoor	1	0.47497833147645
541.4730962719768	1	violation	violation	1	X	14	face	male	1	0.4820985086262226
544.4730530278757	1	restudy	violation	5	B	15	scene	outdoor	1	0.5080937761813402
547.4730137269944	1	violation	violation	6	A	12	scene	outdoor	1	0.4831733936443925
550.4729719636962	1	violation	violation	1	Y	12	face	female	1	0.5421325862407684
553.4729307657109	1	restudy	violation	5	B	14	scene	outdoor	1	0.4682525461539626
556.4728877814487	1	violation	violation	6	A	15	scene	outdoor	1	0.3783011911436915
559.4728480130434	1	violation	violation	1	Y	15	face	male	1	0.5983460089191794
562.4728071661666	1	violation	violation	6	A	16	scene	outdoor	1	0.4683703016489744
565.4727659020573	1	violation	violation	1	Y	16	face	female	1	0.5484223309904337
568.4727239673958	1	violation	violation	6	A	14	scene	indoor	1	0.5224664798006415
571.4726823717356	1	violation	violation	1	Y	14	face	male	1	0.5205060616135597
574.472640982829	1	restudy	violation	6	B	13	scene	indoor	1	0.4955722941085696
577.4725976418704	1	restudy	violation	6	B	15	scene	outdoor	1	0.41267504915595055
580.4725580448285	1	restudy	violation	6	B	16	scene	indoor	1	0.4356373986229301
583.472516736947	1	restudy	violation	6	B	14	scene	outdoor	1	0.5316784381866455
586.4724753433837	1	restudy	violation	6	B	12	scene	indoor	1	0.4447224298492074
