onset	duration	trial_type	condition	repetition	pairmate	pairID	category	subcategory	response_accuracy	response_time
13.504824364557862	1	postlearning	violation	7	B	10	scene	indoor	1	0.682539502158761
16.50479045882821	1	postlearning	violation	7	B	32	scene	outdoor	1	0.4945713570341468
19.504747821949426	1	postlearning	violation	7	B	40	scene	outdoor	1	0.4886844800785184
22.504702560603622	1	postlearning	violation	7	B	17	scene	indoor	1	0.4607252273708582
25.504659631289538	1	postlearning	violation	7	B	14	scene	indoor	1	0.4777725068852306
28.504636900499463	1	postlearning	violation	7	B	13	scene	outdoor	1	0.5427935952320695
31.504584668204192	1	postlearning	violation	7	B	41	scene	indoor	1	0.8548529939725995
34.504546852782376	1	postlearning	nonviolation	7	B	92	scene	indoor	1	0.6768918614834547
37.50450597796589	1	postlearning	violation	7	B	45	scene	outdoor	1	0.6439352352172136
40.50448495708407	1	postlearning	violation	7	B	12	scene	outdoor	1	0.9179496662691236
43.504432803951204	1	postlearning	violation	7	B	30	scene	outdoor	1	0.5000052442774177
46.50439019873738	1	postlearning	nonviolation	7	B	79	scene	indoor	1	0.5790489604696631
49.504354667849846	1	postlearning	nonviolation	7	B	86	scene	indoor	1	0.7640869580209255
52.50431533902884	1	postlearning	violation	7	B	5	scene	indoor	1	0.6231255186721683
55.504286987707026	1	postlearning	violation	7	B	3	scene	indoor	1	0.541121069341898
58.50424349773675	1	postlearning	nonviolation	7	B	59	scene	outdoor	1	0.4521984253078699
61.50420929864049	1	postlearning	nonviolation	7	B	90	scene	outdoor	1	0.9691578010097146
64.50417314190419	1	postlearning	nonviolation	7	B	77	scene	indoor	1	0.5302777104079723
67.50412416085601	1	postlearning	nonviolation	7	B	80	scene	outdoor	1	0.4762347983196378
70.50407856237143	1	postlearning	violation	7	B	31	scene	outdoor	1	0.498358185403049
73.50404112506658	1	postlearning	violation	7	B	18	scene	indoor	1	0.7464025411754847
76.50399785675108	1	postlearning	nonviolation	7	B	66	scene	indoor	1	0.7564413305372
79.50396967772394	1	postlearning	violation	7	B	35	scene	outdoor	1	0.5564738819375634
82.50393129233271	1	postlearning	violation	7	B	36	scene	outdoor	1	0.643509485758841
85.50388788245618	1	postlearning	nonviolation	7	B	75	scene	outdoor	1	0.6735527822747827
88.5038467673585	1	postlearning	nonviolation	7	B	55	scene	indoor	1	0.6145939184352756
91.503807336092	1	postlearning	violation	7	B	46	scene	indoor	1	0.8426356790587306
94.50376551598309	1	postlearning	violation	7	B	33	scene	outdoor	1	0.5926763489842415
97.50373329035938	1	postlearning	violation	7	B	4	scene	outdoor	1	0.5777127612382174
100.50368947722019	1	postlearning	violation	7	B	2	scene	outdoor	1	0.5076775662600994
103.50366082508116	1	postlearning	nonviolation	7	B	73	scene	indoor	1	0.5887850709259511
106.50361501332372	1	postlearning	violation	7	B	28	scene	indoor	1	0.9808346098288894
109.50356844067574	1	postlearning	nonviolation	7	B	89	scene	indoor	1	0.96579899918288
112.50353548489514	1	postlearning	nonviolation	7	B	78	scene	indoor	1	0.6159087661653757
115.50349840149285	1	postlearning	violation	7	B	23	scene	outdoor	1	0.4989439100027085
118.50345574971287	1	postlearning	nonviolation	7	B	84	scene	indoor	1	0.5949930856004357
121.50341960880905	1	postlearning	nonviolation	7	B	57	scene	indoor	1	0.573029313236475
124.50337636563928	1	postlearning	violation	7	B	9	scene	outdoor	1	1.1550792921334505
127.50336139835414	1	postlearning	nonviolation	7	B	85	scene	outdoor	1	0.5260541792958975
130.50330027658492	1	postlearning	violation	7	B	6	scene	indoor	1	0.6451519848778844
133.50326040945947	1	postlearning	nonviolation	7	B	54	scene	indoor	1	0.6781958853825927
136.50323048979044	1	postlearning	nonviolation	7	B	95	scene	outdoor	1	0.5191468372941017
139.5031827222556	1	postlearning	nonviolation	7	B	51	scene	indoor	1	0.8442719960585237
142.5031509771943	1	postlearning	violation	7	B	26	scene	indoor	1	0.6402613958343863
145.5031086029485	1	postlearning	nonviolation	7	B	61	scene	indoor	1	0.5353434151038527
148.5030705779791	1	postlearning	violation	7	B	1	scene	indoor	1	0.6213354906067252
151.5030367327854	1	postlearning	violation	7	B	24	scene	indoor	1	0.5194170149043202
154.502994148992	1	postlearning	violation	7	B	19	scene	outdoor	1	0.5863792933523655
157.50294801965356	1	postlearning	violation	7	B	47	scene	indoor	1	1.1435043197125196
160.5029155286029	1	postlearning	violation	7	B	15	scene	indoor	1	0.5605331147089601
163.50287719536573	1	postlearning	nonviolation	7	B	71	scene	outdoor	1	0.6466107973828912
166.50286118872464	1	postlearning	nonviolation	7	B	91	scene	indoor	1	0.6386139597743751
169.5027812179178	1	postlearning	nonviolation	7	B	65	scene	indoor	1	0.6916685337200761
172.50274902768433	1	postlearning	nonviolation	7	B	82	scene	outdoor	1	0.733706759288907
175.50270822551101	1	postlearning	nonviolation	7	B	56	scene	outdoor	1	0.574721029959619
178.5026770401746	1	postlearning	nonviolation	7	B	74	scene	outdoor	1	0.6497855251654983
181.50263154134154	1	postlearning	violation	7	B	29	scene	indoor	1	0.4618208026513457
184.50260806921867	1	postlearning	violation	7	B	48	scene	outdoor	1	0.4928491404280066
187.50255326181647	1	postlearning	nonviolation	7	B	76	scene	outdoor	1	0.581902202218771
190.50251437351108	1	postlearning	violation	7	B	25	scene	outdoor	1	0.6699524959549308
193.5024847434834	1	postlearning	nonviolation	7	B	72	scene	outdoor	1	0.8759451378136873
196.50244414154443	1	postlearning	nonviolation	7	B	60	scene	outdoor	1	0.6170232566073537
199.50240606721488	1	postlearning	nonviolation	7	B	81	scene	indoor	1	0.5730473427101971
202.50236295349896	1	postlearning	nonviolation	7	B	68	scene	outdoor	1	0.6620965991169214
205.50231493264442	1	postlearning	nonviolation	7	B	67	scene	indoor	1	0.9251463590189816
208.5022806217894	1	postlearning	violation	7	B	16	scene	outdoor	1	0.9391765100881456
211.50223337579519	1	postlearning	nonviolation	7	B	62	scene	outdoor	1	1.0182231366634371
214.5022109989077	1	postlearning	violation	7	B	44	scene	outdoor	1	0.7712466344237328
217.5021598087624	1	postlearning	nonviolation	7	B	96	scene	outdoor	1	0.9573054416105152
220.50212041009218	1	postlearning	violation	7	B	43	scene	indoor	1	1.2523415815085173
223.50208403822037	1	postlearning	violation	7	B	20	scene	outdoor	1	0.5453811651095748
226.5020447820425	1	postlearning	violation	7	B	34	scene	indoor	1	0.5714173372834921
229.50199807994068	1	postlearning	nonviolation	7	B	58	scene	outdoor	1	0.8144627986475825
232.501963948831	1	postlearning	violation	7	B	42	scene	outdoor	1	0.451476220972836
235.5019242223352	1	postlearning	violation	7	B	27	scene	indoor	1	0.688539014197886
238.5018922286108	1	postlearning	violation	7	B	37	scene	indoor	1	0.9375218423083423
241.5018570628017	1	postlearning	nonviolation	7	B	87	scene	outdoor	1	0.5236055832356215
244.5018193181604	1	postlearning	nonviolation	7	B	50	scene	outdoor	1	0.6656464394181967
247.50176703650502	1	postlearning	nonviolation	7	B	49	scene	indoor	1	0.6836974322795868
250.50172515027225	1	postlearning	nonviolation	7	B	88	scene	outdoor	1	0.6577356094494462
253.50169008877128	1	postlearning	violation	7	B	8	scene	outdoor	1	0.5297731859609485
256.50165269989515	1	postlearning	nonviolation	7	B	53	scene	outdoor	1	0.5088109923526645
259.50161137897516	1	postlearning	nonviolation	7	B	83	scene	indoor	1	0.5728615755215287
262.48489114828413	1	postlearning	nonviolation	7	B	69	scene	outdoor	1	0.6845700675621629
265.501540986821	1	postlearning	violation	7	B	21	scene	indoor	1	0.6839339565485716
268.5015100119636	1	postlearning	nonviolation	7	B	52	scene	outdoor	1	0.5159553457051516
271.50146264955396	1	postlearning	nonviolation	7	B	94	scene	indoor	1	1.0880071138963103
274.5014213938266	1	postlearning	nonviolation	7	B	63	scene	indoor	1	0.9269820470362902
277.5013927333057	1	postlearning	violation	7	B	11	scene	indoor	1	0.7130355658009648
280.50133102945983	1	postlearning	violation	7	B	38	scene	indoor	1	0.7111383732408285
283.48463013302535	1	postlearning	violation	7	B	22	scene	outdoor	1	0.8028458300977945
286.48457700852305	1	postlearning	nonviolation	7	B	70	scene	indoor	1	0.5078582549467683
289.4845363171771	1	postlearning	violation	7	B	39	scene	indoor	1	0.720850981771946
292.4845000235364	1	postlearning	violation	7	B	7	scene	outdoor	1	0.542889385484159
295.48445686604833	1	postlearning	nonviolation	7	B	93	scene	outdoor	1	0.5470215883105993
298.48441636096686	1	postlearning	nonviolation	7	B	64	scene	indoor	1	0.5920503642410041
