onset	duration	trial_type	condition	repetition	pairmate	pairID	category	subcategory	response_accuracy	response_time
13.502930539892983	1	prelearning	violation	1	B	14	scene	indoor	1	0.6540693230926989
16.50288303999696	1	prelearning	nonviolation	1	A	60	scene	indoor	0	0.5511229489929974
19.502851979923435	1	prelearning	violation	1	B	11	scene	outdoor	1	0.6311464969767258
22.50281615299173	1	prelearning	nonviolation	1	B	64	scene	indoor	1	0.47312072198838
25.50277342798654	1	prelearning	nonviolation	1	B	57	scene	indoor	1	0.4872412899276242
28.502734415000305	1	prelearning	violation	1	A	10	scene	outdoor	0	0.6052755329292268
31.502695105969906	1	prelearning	nonviolation	1	A	57	scene	outdoor	1	0.8093079689424485
34.50265988789033	1	prelearning	nonviolation	1	B	61	scene	indoor	1	0.6403454201063141
37.5026245568879	1	prelearning	nonviolation	1	B	59	scene	outdoor	1	0.4903790800599381
40.502575520891696	1	prelearning	violation	1	A	14	scene	indoor	1	0.5424354490824044
43.5025475709699	1	prelearning	violation	1	A	16	scene	indoor	1	0.5784557609586045
46.502498003887005	1	prelearning	nonviolation	1	A	59	scene	indoor	1	0.5565094990888609
49.50246694090311	1	prelearning	violation	1	B	9	scene	outdoor	1	0.6925366520881653
52.50242377491668	1	prelearning	nonviolation	1	A	63	scene	outdoor	1	0.6025782800279558
55.50238472688943	1	prelearning	violation	1	B	13	scene	indoor	1	0.5445508341072127
58.502330486895524	1	prelearning	nonviolation	1	A	64	scene	outdoor	1	0.7986844551051036
61.50230020994786	1	prelearning	violation	1	A	12	scene	outdoor	1	0.46170901902951295
64.50226885790471	1	prelearning	violation	1	A	9	scene	outdoor	1	0.5577400589827448
67.50223541690502	1	prelearning	violation	1	B	16	scene	outdoor	1	0.5487728050211444
70.5021927919006	1	prelearning	nonviolation	1	B	62	scene	outdoor	1	0.5748146390542388
73.50215167691931	1	prelearning	violation	1	B	15	scene	indoor	0	0.8328554040053859
76.50210447295103	1	prelearning	violation	1	A	13	scene	indoor	1	0.5129031139658764
79.50206545798574	1	prelearning	nonviolation	1	B	60	scene	indoor	1	0.6219486749032512
82.50202835991513	1	prelearning	violation	1	A	15	scene	outdoor	1	0.9389867880381644
85.50198597298005	1	prelearning	nonviolation	1	A	62	scene	indoor	1	0.5350207679439336
88.50194601994006	1	prelearning	nonviolation	1	B	58	scene	outdoor	1	0.5580682719592005
91.50190642289816	1	prelearning	violation	1	B	10	scene	outdoor	1	0.5981087430845946
94.50186689395923	1	prelearning	nonviolation	1	A	61	scene	indoor	1	0.9061423300299792
97.5018342649564	1	prelearning	nonviolation	1	B	63	scene	outdoor	1	0.5011782050132751
100.50179730390663	1	prelearning	nonviolation	1	A	58	scene	outdoor	1	0.587212149053812
103.50175308797043	1	prelearning	violation	1	A	11	scene	indoor	1	0.5872550449566916
106.50170950393658	1	prelearning	violation	1	B	12	scene	indoor	1	0.7613043449819088
109.5016786979977	1	learning	nonviolation	2	A	57	scene	outdoor	1	0.5483413320034742
112.50162932998501	1	learning	nonviolation	2	B	57	scene	indoor	1	0.5653913869755343
115.5015992289409	1	learning	violation	2	A	9	scene	outdoor	1	0.5054439150262624
118.5015519959852	1	learning	violation	2	B	9	scene	outdoor	0	0.5584588849451393
121.50151707592886	1	learning	violation	2	A	10	scene	outdoor	1	0.5425034239888191
124.50147606793324	1	learning	violation	2	B	10	scene	outdoor	1	0.6485396190546453
127.50142926489934	1	learning	violation	2	A	11	scene	indoor	1	0.7585862840060145
130.5013980519725	1	learning	violation	2	B	11	scene	outdoor	1	0.5094994680257514
133.50135172798764	1	learning	violation	2	A	12	scene	outdoor	1	0.5626605269499123
136.50131092593074	1	learning	violation	2	B	12	scene	indoor	1	0.7787075720261782
139.5012726288987	1	learning	nonviolation	2	A	58	scene	outdoor	1	0.5757438360014929
142.50123501499183	1	learning	nonviolation	2	B	58	scene	outdoor	1	0.7297842690022662
145.50118825992104	1	learning	violation	2	A	13	scene	indoor	1	0.7438322859816253
148.5011501319241	1	learning	violation	2	B	13	scene	indoor	1	0.7438716019969434
151.50111251999624	1	learning	nonviolation	3	A	57	scene	outdoor	1	0.7649094369262457
154.50107344891873	1	learning	nonviolation	3	B	57	scene	indoor	1	0.6039462800836191
157.5010359250009	1	learning	nonviolation	2	A	59	scene	indoor	1	0.5539942339528352
160.50100635096896	1	learning	nonviolation	2	B	59	scene	outdoor	1	0.5250121549470349
163.50095424999014	1	learning	nonviolation	2	A	60	scene	indoor	1	0.7040672349976376
166.5009257979691	1	learning	nonviolation	2	B	60	scene	indoor	1	0.772094264975749
169.50087043992244	1	learning	nonviolation	2	A	61	scene	indoor	1	0.6351528699742629
172.50083238398656	1	learning	nonviolation	2	B	61	scene	indoor	1	0.7131937489612028
175.50079516100232	1	learning	violation	3	A	9	scene	outdoor	1	0.5402382139582187
178.50075342599305	1	learning	violation	3	B	9	scene	outdoor	1	1.0852698870003223
181.50071213697083	1	learning	violation	2	A	14	scene	indoor	1	0.5813117159996182
184.5006729459856	1	learning	violation	2	B	14	scene	indoor	1	0.6073559169890359
187.50063347490502	1	learning	violation	3	A	13	scene	indoor	1	0.7823842210927978
190.50059205293653	1	learning	violation	3	B	13	scene	indoor	1	0.5564320130506529
193.5005519449478	1	learning	nonviolation	3	A	61	scene	indoor	1	0.4874753659823909
196.50051099492703	1	learning	nonviolation	3	B	61	scene	indoor	1	0.5735145719954744
199.50048043497367	1	learning	violation	3	A	11	scene	indoor	1	0.4845454789465293
202.50043001095764	1	learning	violation	3	B	11	scene	outdoor	1	0.6556036099791527
205.50039187294894	1	learning	violation	4	A	9	scene	outdoor	1	0.5666371829574928
208.50035000999924	1	learning	violation	4	B	9	scene	outdoor	1	0.7286761678988114
211.5003117969027	1	learning	nonviolation	3	A	58	scene	outdoor	1	0.4987147140782327
214.50026966398588	1	learning	nonviolation	3	B	58	scene	outdoor	1	0.4466402399120853
217.50024233700242	1	learning	nonviolation	3	A	59	scene	indoor	0	0.4937910479493439
220.50020397093613	1	learning	nonviolation	3	B	59	scene	outdoor	1	0.7678221630631015
223.500159358955	1	learning	violation	4	A	13	scene	indoor	1	0.5648660720326006
226.5001082279486	1	learning	violation	4	B	13	scene	indoor	1	0.6819208560045809
229.50008178397547	1	learning	violation	3	A	10	scene	outdoor	1	0.7579487420152873
232.5000356509117	1	learning	violation	3	B	10	scene	outdoor	1	0.5739937560865656
235.5000184068922	1	learning	violation	2	A	15	scene	outdoor	1	0.6650143800070509
238.4999810939189	1	learning	violation	2	B	15	scene	indoor	1	0.8090558290714398
241.4999514319934	1	learning	violation	3	A	14	scene	indoor	1	0.5100761309731752
244.49987346597482	1	learning	violation	3	B	14	scene	indoor	1	0.6021573449252173
247.49983730295207	1	learning	violation	3	A	12	scene	outdoor	1	0.5291950009996071
250.49979273090142	1	learning	violation	3	B	12	scene	indoor	1	0.534238688996993
253.499749058974	1	learning	nonviolation	4	A	57	scene	outdoor	1	0.4652799549512565
256.4997072039405	1	learning	nonviolation	4	B	57	scene	indoor	1	0.478322493028827
259.49966743891133	1	learning	violation	3	A	15	scene	outdoor	1	0.4993098030099645
262.49963017296983	1	learning	violation	3	B	15	scene	indoor	1	0.5504030819283798
265.49958857090684	1	learning	nonviolation	4	A	59	scene	indoor	1	0.6404559550574049
268.49955028493423	1	learning	nonviolation	4	B	59	scene	outdoor	1	0.752480652066879
271.4995104148984	1	restudy	nonviolation	5	B	57	scene	indoor	1	0.4925245710182935
274.4994683969999	1	learning	nonviolation	3	A	60	scene	indoor	1	0.8535715899197385
277.4994284939021	1	learning	nonviolation	3	B	60	scene	indoor	1	0.7114895019913092
280.4993973559467	1	learning	violation	4	A	12	scene	outdoor	1	0.5566388489678502
283.4993478419492	1	learning	violation	4	B	12	scene	indoor	1	0.4886878690449521
286.4993221949553	1	violation	violation	5	A	13	scene	indoor	1	0.4937112350016832
289.49926643690566	1	violation	violation	1	X	13	face	female	1	0.6967767800670117
292.49922438396607	1	learning	violation	4	A	11	scene	indoor	1	0.4968116759555414
295.4992081609089	1	learning	violation	4	B	11	scene	outdoor	1	0.5658419909887016
298.4991503509227	1	restudy	nonviolation	6	B	57	scene	indoor	1	0.4558897040551528
301.4991185709368	1	learning	nonviolation	4	A	61	scene	indoor	1	0.5249173310585321
304.4990659159376	1	learning	nonviolation	4	B	61	scene	indoor	1	0.6539742429740727
307.49902493797714	1	violation	violation	5	A	9	scene	outdoor	1	0.5220159540185705
310.4989828499965	1	violation	violation	1	X	9	face	male	1	0.6039794218959287
313.4989479369251	1	learning	violation	4	A	14	scene	indoor	1	0.4860919800121337
316.49890887900256	1	learning	violation	4	B	14	scene	indoor	1	0.5271333459531888
319.49886175093707	1	restudy	nonviolation	5	B	61	scene	indoor	1	0.5061747119762003
322.4988519489998	1	learning	nonviolation	4	A	58	scene	outdoor	1	0.5301892400020733
325.49878169293515	1	learning	nonviolation	4	B	58	scene	outdoor	1	0.4362590269884095
328.49874396796804	1	learning	violation	2	A	16	scene	indoor	1	0.6733001669635996
331.49870767898386	1	learning	violation	2	B	16	scene	outdoor	0	0.5953347479226068
334.49866279691923	1	restudy	violation	5	B	13	scene	indoor	1	0.6073819400044158
337.49863050796563	1	learning	violation	4	A	10	scene	outdoor	1	0.5334189230343327
340.49858352495363	1	learning	violation	4	B	10	scene	outdoor	1	0.5294638019986451
343.49854340893216	1	learning	violation	4	A	15	scene	outdoor	1	0.616416634991765
346.49850923591293	1	learning	violation	4	B	15	scene	indoor	1	0.4395392050500959
349.4984598119045	1	learning	nonviolation	2	A	62	scene	indoor	1	0.6465876430738717
352.49843030492775	1	learning	nonviolation	2	B	62	scene	outdoor	1	0.5186135430121794
355.49838738690596	1	violation	violation	5	A	12	scene	outdoor	1	0.5106967909960076
358.4816628108965	1	violation	violation	1	X	12	face	female	1	0.6233075160998851
361.4982990359422	1	violation	violation	5	A	11	scene	indoor	1	0.5427475230535492
364.49825769895693	1	violation	violation	1	X	11	face	male	1	0.4877924079773948
367.48154297389567	1	restudy	violation	5	B	9	scene	outdoor	1	0.4235028011025861
370.49817881395575	1	learning	nonviolation	4	A	60	scene	indoor	1	0.6718703359365463
373.49813982599886	1	learning	nonviolation	4	B	60	scene	indoor	1	0.7649135169340298
376.4814293469535	1	restudy	nonviolation	5	B	59	scene	outdoor	0	0.5806254949420689
379.48138856189325	1	learning	nonviolation	2	A	63	scene	outdoor	1	0.4706685760756954
382.4813407869078	1	learning	nonviolation	2	B	63	scene	outdoor	1	0.4857089850120246
385.4813068119111	1	restudy	nonviolation	5	B	58	scene	outdoor	1	0.6147617460228503
388.48127308196854	1	learning	nonviolation	3	A	62	scene	indoor	1	0.542797297006473
391.48122032196267	1	learning	nonviolation	3	B	62	scene	outdoor	1	0.6008301629917696
394.4811867779354	1	restudy	nonviolation	6	B	59	scene	outdoor	1	0.7738651790423319
397.4811619959073	1	restudy	nonviolation	5	B	60	scene	indoor	1	0.5798911390593275
400.48110893799463	1	violation	violation	6	A	13	scene	indoor	1	0.5469435509294271
403.4811036669416	1	violation	violation	1	Y	13	face	female	1	0.657945950049907
406.48102109495085	1	learning	violation	3	A	16	scene	indoor	1	0.7410274730063975
409.4809874349739	1	learning	violation	3	B	16	scene	outdoor	1	0.6140652429312468
412.4809454999631	1	restudy	nonviolation	6	B	61	scene	indoor	1	0.4801073690177873
415.4809200629825	1	violation	violation	5	A	14	scene	indoor	1	0.7381297999527305
418.48087856394704	1	violation	violation	1	X	14	face	female	1	0.5651772399432957
421.48082746600267	1	violation	violation	6	A	9	scene	outdoor	1	0.5412006949773058
424.48079029493965	1	violation	violation	1	Y	9	face	male	1	0.5032604810548946
427.480760655948	1	learning	nonviolation	3	A	63	scene	outdoor	1	0.5572921750135721
430.4807026899653	1	learning	nonviolation	3	B	63	scene	outdoor	1	0.4783543469384313
433.4806593589019	1	learning	nonviolation	2	A	64	scene	outdoor	1	0.4713949400465936
436.48063369398005	1	learning	nonviolation	2	B	64	scene	indoor	1	0.5244188479846343
439.48058395693084	1	violation	violation	5	A	10	scene	outdoor	1	0.5334721490507945
442.48054225195676	1	violation	violation	1	X	10	face	male	1	0.5775183920050041
445.48050552792847	1	restudy	violation	5	B	12	scene	indoor	1	0.6105531300418079
448.48046134389006	1	violation	violation	5	A	15	scene	outdoor	1	0.588590722065419
451.48043756396515	1	violation	violation	1	X	15	face	female	1	0.6846193879609928
454.4803838049993	1	learning	nonviolation	4	A	62	scene	indoor	1	0.8786804729606956
457.4803461979609	1	learning	nonviolation	4	B	62	scene	outdoor	0	0.4497173900017515
460.4803012299817	1	restudy	violation	5	B	11	scene	outdoor	1	0.5327031059423462
463.48026207892684	1	restudy	violation	5	B	14	scene	indoor	1	0.5546752800000831
466.4802218079567	1	restudy	nonviolation	6	B	58	scene	outdoor	1	0.5908003309741616
469.48018068191595	1	restudy	violation	6	B	9	scene	outdoor	1	0.9848810430848972
472.48014876898384	1	restudy	nonviolation	5	B	62	scene	outdoor	1	0.5069137939717621
475.4801012849202	1	restudy	nonviolation	6	B	60	scene	indoor	1	0.5849622880341485
478.4800627359655	1	violation	violation	6	A	11	scene	indoor	1	0.5730004539946094
481.4800186778885	1	violation	violation	1	Y	11	face	male	1	0.5780448070727289
484.47997899295297	1	restudy	violation	6	B	13	scene	indoor	1	0.8070881050080061
487.47994051396375	1	learning	violation	4	A	16	scene	indoor	1	0.5301175860222429
490.4798978118925	1	learning	violation	4	B	16	scene	outdoor	1	0.6581684240372851
493.47987393697264	1	violation	violation	6	A	14	scene	indoor	1	0.6111913829809055
496.47981872293167	1	violation	violation	1	Y	14	face	female	1	0.7182445579674095
499.47977693600114	1	learning	nonviolation	4	A	63	scene	outdoor	1	0.5712856058962643
502.47973561997065	1	learning	nonviolation	4	B	63	scene	outdoor	1	0.4883323949761689
505.4797182559269	1	learning	nonviolation	3	A	64	scene	outdoor	1	0.5013735450338572
508.4796561349649	1	learning	nonviolation	3	B	64	scene	indoor	0	0.5904079970205203
511.4796161919367	1	restudy	violation	6	B	11	scene	outdoor	1	0.5654463809914887
514.4795746000018	1	violation	violation	6	A	12	scene	outdoor	1	0.4764930428937078
517.4795526599046	1	violation	violation	1	Y	12	face	female	1	0.5825156430946663
520.4794962439919	1	violation	violation	5	A	16	scene	indoor	1	0.6065644299378619
523.4794735809555	1	violation	violation	1	X	16	face	male	1	0.489591744961217
526.4794141199674	1	restudy	nonviolation	6	B	62	scene	outdoor	1	0.4296549370046705
529.4793762599584	1	restudy	violation	5	B	15	scene	indoor	1	0.6586890920298174
532.4793317079311	1	restudy	violation	5	B	10	scene	outdoor	1	0.6157319020712748
535.4793025499675	1	learning	nonviolation	4	A	64	scene	outdoor	1	0.5387814110144973
538.4792619929649	1	learning	nonviolation	4	B	64	scene	indoor	1	0.5618039069231601
541.4792129650014	1	violation	violation	6	A	15	scene	outdoor	1	0.571731359930709
544.4791741569061	1	violation	violation	1	Y	15	face	female	1	0.49889594409614796
547.4791311569279	1	restudy	violation	5	B	16	scene	outdoor	0	0.7559386399807408
550.4791072038934	1	violation	violation	6	A	10	scene	outdoor	1	0.5539695820771158
553.4790601279818	1	violation	violation	1	Y	10	face	male	1	0.7760124409105629
556.4790087749716	1	restudy	nonviolation	5	B	64	scene	indoor	1	0.5250655580312014
559.4789674829226	1	restudy	nonviolation	5	B	63	scene	outdoor	1	0.5141019059810787
562.4789252419723	1	violation	violation	6	A	16	scene	indoor	1	0.5661563780158758
565.4788936779369	1	violation	violation	1	Y	16	face	male	1	0.5531823809724301
568.4788489929632	1	restudy	nonviolation	6	B	64	scene	indoor	1	0.9112183219986036
571.4788102209567	1	restudy	violation	6	B	10	scene	outdoor	1	0.5012636140454559
574.4787685489282	1	restudy	violation	6	B	12	scene	indoor	1	0.5103103340370579
577.4787304459604	1	restudy	violation	6	B	16	scene	outdoor	1	0.5263450469356029
580.4786862749606	1	restudy	violation	6	B	14	scene	indoor	1	0.5643860979471356
583.4786464469507	1	restudy	violation	6	B	15	scene	indoor	1	0.5264239319367334
586.4786104919623	1	restudy	nonviolation	6	B	63	scene	outdoor	1	0.5724883390357718
