onset	duration	trial_type	reward_condition	condition	repetition	pairmate	pairID	response_accuracy	response_time
13.508176657138392	2.5	scene	reward	nonviolation	3	A	62	1	0.7459570369683206
16.008176657138392	3.0	feedback	n/a	n/a	n/a	n/a	n/a	n/a	n/a
19.508096158970147	2.5	scene	reward	violation	3	A	27	1	0.6490335331764072
22.008096158970147	3.0	feedback	n/a	n/a	n/a	n/a	n/a	n/a	n/a
25.508011166006327	2.5	scene	reward	nonviolation	3	A	68	1	0.6801241210196167
28.008011166006327	3.0	feedback	n/a	n/a	n/a	n/a	n/a	n/a	n/a
31.507930784020573	2.5	scene	reward	nonviolation	3	A	90	1	0.6121499889995903
34.00793078402057	3.0	feedback	n/a	n/a	n/a	n/a	n/a	n/a	n/a
37.507864375133074	2.5	scene	neutral	violation	3	A	10	1	0.7272704560309649
40.007864375133074	3.0	feedback	n/a	n/a	n/a	n/a	n/a	n/a	n/a
43.507784868124865	2.5	scene	neutral	violation	3	A	41	1	0.9032910359092056
46.007784868124865	3.0	feedback	n/a	n/a	n/a	n/a	n/a	n/a	n/a
49.50769672403111	2.5	scene	neutral	violation	3	A	15	1	1.0764425550587475
52.00769672403111	3.0	feedback	n/a	n/a	n/a	n/a	n/a	n/a	n/a
55.50761954509653	2.5	scene	reward	violation	3	A	32	1	0.6675202599726617
58.00761954509653	3.0	feedback	n/a	n/a	n/a	n/a	n/a	n/a	n/a
61.507542231120176	2.5	scene	reward	violation	3	A	3	1	0.9535955139435828
64.00754223112018	3.0	feedback	n/a	n/a	n/a	n/a	n/a	n/a	n/a
67.50746037508361	2.5	scene	reward	violation	3	A	34	1	0.7496799449436367
70.00746037508361	3.0	feedback	n/a	n/a	n/a	n/a	n/a	n/a	n/a
73.50738759804517	2.5	scene	neutral	nonviolation	3	A	65	1	0.6947547690942883
76.00738759804517	3.0	feedback	n/a	n/a	n/a	n/a	n/a	n/a	n/a
79.50730979000218	2.5	scene	reward	nonviolation	3	A	52	1	0.6448265970684588
82.00730979000218	3.0	feedback	n/a	n/a	n/a	n/a	n/a	n/a	n/a
85.5072319470346	2.5	scene	neutral	nonviolation	3	A	51	1	1.387911634054035
88.00723194703458	3.0	feedback	n/a	n/a	n/a	n/a	n/a	n/a	n/a
91.50715215411036	2.5	scene	neutral	nonviolation	3	A	63	1	0.7509192449506372
94.00715215411036	3.0	feedback	n/a	n/a	n/a	n/a	n/a	n/a	n/a
97.50707314605823	2.5	scene	reward	violation	3	A	11	1	0.5920726191252471
100.00707314605823	3.0	feedback	n/a	n/a	n/a	n/a	n/a	n/a	n/a
103.50698497914708	2.5	scene	reward	violation	3	A	38	1	0.6111669209785761
106.00698497914708	3.0	feedback	n/a	n/a	n/a	n/a	n/a	n/a	n/a
109.5069096579682	2.5	scene	reward	violation	3	A	48	1	0.8932358950842172
112.0069096579682	3.0	feedback	n/a	n/a	n/a	n/a	n/a	n/a	n/a
115.50683030602522	2.5	scene	neutral	violation	3	A	26	1	0.8693463020026684
118.00683030602522	3.0	feedback	n/a	n/a	n/a	n/a	n/a	n/a	n/a
121.50675710197538	2.5	scene	reward	nonviolation	3	A	89	1	0.6663859831169248
124.00675710197538	3.0	feedback	n/a	n/a	n/a	n/a	n/a	n/a	n/a
127.50668260711245	2.5	scene	neutral	nonviolation	3	A	67	1	0.9974674528930336
130.00668260711245	3.0	feedback	n/a	n/a	n/a	n/a	n/a	n/a	n/a
133.50660353899002	2.5	scene	neutral	nonviolation	3	A	55	1	0.7835435799788684
136.00660353899002	3.0	feedback	n/a	n/a	n/a	n/a	n/a	n/a	n/a
139.50651232502423	2.5	scene	neutral	violation	3	A	31	1	0.7766362130641937
142.00651232502423	3.0	feedback	n/a	n/a	n/a	n/a	n/a	n/a	n/a
145.50643708813004	2.5	scene	reward	violation	3	A	20	1	0.5547248579096049
148.00643708813004	3.0	feedback	n/a	n/a	n/a	n/a	n/a	n/a	n/a
151.5063613359816	2.5	scene	reward	nonviolation	3	A	74	1	0.6287831431254745
154.0063613359816	3.0	feedback	n/a	n/a	n/a	n/a	n/a	n/a	n/a
157.50627264613286	2.5	scene	reward	nonviolation	3	A	76	1	0.7288752009626478
160.00627264613286	3.0	feedback	n/a	n/a	n/a	n/a	n/a	n/a	n/a
163.50620810315013	2.5	scene	neutral	nonviolation	3	A	75	1	0.7039393989834934
166.00620810315013	3.0	feedback	n/a	n/a	n/a	n/a	n/a	n/a	n/a
169.5061130169779	2.5	scene	neutral	violation	3	A	37	1	1.0550486391875893
172.00611301697793	3.0	feedback	n/a	n/a	n/a	n/a	n/a	n/a	n/a
175.50602475902997	2.5	scene	neutral	nonviolation	3	A	87	1	0.8001248810905963
178.00602475902997	3.0	feedback	n/a	n/a	n/a	n/a	n/a	n/a	n/a
181.5059515591711	2.5	scene	reward	nonviolation	3	A	60	1	0.6002183759119362
184.0059515591711	3.0	feedback	n/a	n/a	n/a	n/a	n/a	n/a	n/a
187.50588159402832	2.5	scene	reward	nonviolation	3	A	49	1	0.6021875280421227
190.00588159402832	3.0	feedback	n/a	n/a	n/a	n/a	n/a	n/a	n/a
193.50579256005585	2.5	scene	reward	violation	3	A	22	1	0.5313596820924431
196.00579256005585	3.0	feedback	n/a	n/a	n/a	n/a	n/a	n/a	n/a
199.48903847718609	2.5	scene	neutral	violation	3	A	45	1	0.8121122729498893
201.98903847718609	3.0	feedback	n/a	n/a	n/a	n/a	n/a	n/a	n/a
205.48896814300682	2.5	scene	neutral	violation	3	A	36	1	1.5111832290422171
207.98896814300682	3.0	feedback	n/a	n/a	n/a	n/a	n/a	n/a	n/a
211.48889240808785	2.5	scene	neutral	violation	3	A	24	1	0.6052615479566157
213.98889240808785	3.0	feedback	n/a	n/a	n/a	n/a	n/a	n/a	n/a
217.48879956500602	2.5	scene	neutral	nonviolation	3	A	81	1	0.6083518681116402
219.98879956500602	3.0	feedback	n/a	n/a	n/a	n/a	n/a	n/a	n/a
223.48872314300388	2.5	scene	reward	nonviolation	3	A	72	1	1.1124337231740355
225.98872314300388	3.0	feedback	n/a	n/a	n/a	n/a	n/a	n/a	n/a
229.48864369606602	2.5	scene	reward	nonviolation	3	A	88	1	0.6515201490838081
231.98864369606602	3.0	feedback	n/a	n/a	n/a	n/a	n/a	n/a	n/a
235.4885643811431	2.5	scene	neutral	nonviolation	3	A	79	1	1.1056001139804719
237.9885643811431	3.0	feedback	n/a	n/a	n/a	n/a	n/a	n/a	n/a
241.4884835181292	2.5	scene	neutral	nonviolation	3	A	94	1	0.7236794328782707
243.9884835181292	3.0	feedback	n/a	n/a	n/a	n/a	n/a	n/a	n/a
247.48841077298854	2.5	scene	reward	nonviolation	3	A	82	1	0.9357461649924516
249.98841077298854	3.0	feedback	n/a	n/a	n/a	n/a	n/a	n/a	n/a
253.48833409603682	2.5	scene	neutral	nonviolation	3	A	93	1	0.9168226961046456
255.98833409603682	3.0	feedback	n/a	n/a	n/a	n/a	n/a	n/a	n/a
259.4882515789941	2.5	scene	neutral	violation	3	A	7	1	0.6989130491856486
261.9882515789941	3.0	feedback	n/a	n/a	n/a	n/a	n/a	n/a	n/a
265.4881722771097	2.5	scene	neutral	nonviolation	3	A	61	1	0.8129862209316343
267.9881722771097	3.0	feedback	n/a	n/a	n/a	n/a	n/a	n/a	n/a
271.48812793497933	2.5	scene	neutral	violation	3	A	18	1	0.8450342111755162
273.98812793497933	3.0	feedback	n/a	n/a	n/a	n/a	n/a	n/a	n/a
277.4920250831637	2.5	scene	neutral	violation	3	A	5	1	0.6561441849917173
279.9920250831637	3.0	feedback	n/a	n/a	n/a	n/a	n/a	n/a	n/a
283.48792464309366	2.5	scene	reward	violation	3	A	4	1	0.5272418009117246
285.98792464309366	3.0	feedback	n/a	n/a	n/a	n/a	n/a	n/a	n/a
289.49179547210224	2.5	scene	reward	violation	3	A	16	1	0.6293846098706126
291.99179547210224	3.0	feedback	n/a	n/a	n/a	n/a	n/a	n/a	n/a
295.4923098341096	2.5	scene	reward	violation	3	A	46	1	0.7728562268894166
297.9923098341096	3.0	feedback	n/a	n/a	n/a	n/a	n/a	n/a	n/a
301.49112138012424	2.5	scene	reward	nonviolation	4	A	76	1	0.5590405010152608
303.99112138012424	3.0	feedback	n/a	n/a	n/a	n/a	n/a	n/a	n/a
307.4919142459985	2.5	scene	reward	nonviolation	4	A	72	1	0.9862556210719048
309.9919142459985	3.0	feedback	n/a	n/a	n/a	n/a	n/a	n/a	n/a
313.49170241109096	2.5	scene	reward	violation	4	A	16	1	1.497466061031446
315.99170241109096	3.0	feedback	n/a	n/a	n/a	n/a	n/a	n/a	n/a
319.49118223413825	2.5	scene	neutral	violation	4	A	37	1	0.8359862328507006
321.99118223413825	3.0	feedback	n/a	n/a	n/a	n/a	n/a	n/a	n/a
325.4909140709788	2.5	scene	reward	nonviolation	4	A	60	1	0.5192555750254542
327.9909140709788	3.0	feedback	n/a	n/a	n/a	n/a	n/a	n/a	n/a
331.4914349501487	2.5	scene	reward	violation	4	A	46	1	0.6147385758813471
333.9914349501487	3.0	feedback	n/a	n/a	n/a	n/a	n/a	n/a	n/a
337.48895536409685	2.5	scene	neutral	violation	4	A	41	1	0.6542099788784981
339.98895536409685	3.0	feedback	n/a	n/a	n/a	n/a	n/a	n/a	n/a
343.4897551580798	2.5	scene	reward	violation	4	A	22	1	0.7014210519846529
345.98975515807984	3.0	feedback	n/a	n/a	n/a	n/a	n/a	n/a	n/a
349.487058728002	2.5	scene	reward	nonviolation	4	A	82	1	1.1041118181310594
351.987058728002	3.0	feedback	n/a	n/a	n/a	n/a	n/a	n/a	n/a
355.48922967305407	2.5	scene	neutral	violation	4	A	7	1	0.5679472999181598
357.98922967305407	3.0	feedback	n/a	n/a	n/a	n/a	n/a	n/a	n/a
361.4890295041259	2.5	scene	neutral	nonviolation	4	A	81	1	0.7260628319345415
363.9890295041259	3.0	feedback	n/a	n/a	n/a	n/a	n/a	n/a	n/a
367.4885635680985	2.5	scene	neutral	violation	4	A	15	n/a	n/a
369.9885635680985	3.0	feedback	n/a	n/a	n/a	n/a	n/a	n/a	n/a
373.4867473561317	2.5	scene	reward	nonviolation	4	A	89	1	0.9993531669024378
375.9867473561317	3.0	feedback	n/a	n/a	n/a	n/a	n/a	n/a	n/a
379.48667141608894	2.5	scene	reward	violation	4	A	34	1	0.5775021670851856
381.98667141608894	3.0	feedback	n/a	n/a	n/a	n/a	n/a	n/a	n/a
385.48722204612574	2.5	scene	neutral	violation	4	A	36	1	0.7149591769557446
387.98722204612574	3.0	feedback	n/a	n/a	n/a	n/a	n/a	n/a	n/a
391.487749294145	2.5	scene	reward	violation	4	A	4	1	0.5004282039590179
393.987749294145	3.0	feedback	n/a	n/a	n/a	n/a	n/a	n/a	n/a
397.4864316741005	2.5	scene	reward	violation	4	A	32	1	0.5987418699078262
399.9864316741005	3.0	feedback	n/a	n/a	n/a	n/a	n/a	n/a	n/a
403.4863434620202	2.5	scene	neutral	nonviolation	4	A	61	1	0.755759950960055
405.9863434620202	3.0	feedback	n/a	n/a	n/a	n/a	n/a	n/a	n/a
409.48627286218107	2.5	scene	neutral	nonviolation	4	A	93	1	1.7539112709928304
411.98627286218107	3.0	feedback	n/a	n/a	n/a	n/a	n/a	n/a	n/a
415.486195357982	2.5	scene	neutral	nonviolation	4	A	94	1	0.6290056849829853
417.986195357982	3.0	feedback	n/a	n/a	n/a	n/a	n/a	n/a	n/a
421.4861176300328	2.5	scene	neutral	violation	4	A	26	1	0.7570678091142327
423.9861176300328	3.0	feedback	n/a	n/a	n/a	n/a	n/a	n/a	n/a
427.48603712301696	2.5	scene	reward	violation	4	A	3	1	0.6521433249581605
429.98603712301696	3.0	feedback	n/a	n/a	n/a	n/a	n/a	n/a	n/a
433.4859593380242	2.5	scene	neutral	nonviolation	4	A	51	1	1.1841503221075982
435.9859593380242	3.0	feedback	n/a	n/a	n/a	n/a	n/a	n/a	n/a
439.4858777080663	2.5	scene	reward	nonviolation	4	A	62	1	0.6453038810286671
441.9858777080663	3.0	feedback	n/a	n/a	n/a	n/a	n/a	n/a	n/a
445.4857927470002	2.5	scene	neutral	violation	4	A	24	1	0.6913902470842004
447.9857927470002	3.0	feedback	n/a	n/a	n/a	n/a	n/a	n/a	n/a
451.48571570310736	2.5	scene	reward	nonviolation	4	A	49	1	0.7784770119469613
453.98571570310736	3.0	feedback	n/a	n/a	n/a	n/a	n/a	n/a	n/a
457.4856425949838	2.5	scene	reward	nonviolation	4	A	74	1	0.6075383110437542
459.9856425949838	3.0	feedback	n/a	n/a	n/a	n/a	n/a	n/a	n/a
463.48555524111725	2.5	scene	neutral	nonviolation	4	A	63	1	0.7046509599313141
465.98555524111725	3.0	feedback	n/a	n/a	n/a	n/a	n/a	n/a	n/a
469.4854768861551	2.5	scene	reward	violation	4	A	11	1	0.6457138429395854
471.9854768861551	3.0	feedback	n/a	n/a	n/a	n/a	n/a	n/a	n/a
475.4853980010376	2.5	scene	neutral	violation	4	A	5	1	0.6957915299572051
477.9853980010376	3.0	feedback	n/a	n/a	n/a	n/a	n/a	n/a	n/a
481.4853238901123	2.5	scene	neutral	violation	4	A	10	1	0.5758652410004288
483.9853238901123	3.0	feedback	n/a	n/a	n/a	n/a	n/a	n/a	n/a
487.48524962598464	2.5	scene	neutral	nonviolation	4	A	79	1	0.8469397171866149
489.98524962598464	3.0	feedback	n/a	n/a	n/a	n/a	n/a	n/a	n/a
493.48517603613436	2.5	scene	reward	violation	4	A	27	1	0.5840127100236714
495.98517603613436	3.0	feedback	n/a	n/a	n/a	n/a	n/a	n/a	n/a
499.4850867290516	2.5	scene	reward	violation	4	A	48	1	0.8131077659782022
501.9850867290516	3.0	feedback	n/a	n/a	n/a	n/a	n/a	n/a	n/a
505.4850096351002	2.5	scene	neutral	violation	4	A	45	1	1.1401886660605671
507.9850096351002	3.0	feedback	n/a	n/a	n/a	n/a	n/a	n/a	n/a
511.48492355202325	2.5	scene	neutral	violation	4	A	31	1	0.7162687000818551
513.9849235520231	3.0	feedback	n/a	n/a	n/a	n/a	n/a	n/a	n/a
517.4848425791133	2.5	scene	reward	nonviolation	4	A	52	1	0.8133527529425919
519.9848425791133	3.0	feedback	n/a	n/a	n/a	n/a	n/a	n/a	n/a
523.4847624751274	2.5	scene	neutral	violation	4	A	18	1	0.7823161580599844
525.9847624751274	3.0	feedback	n/a	n/a	n/a	n/a	n/a	n/a	n/a
529.4846922659781	2.5	scene	neutral	nonviolation	4	A	55	1	0.7094993421342224
531.9846922659781	3.0	feedback	n/a	n/a	n/a	n/a	n/a	n/a	n/a
535.4846156160347	2.5	scene	reward	nonviolation	4	A	90	1	1.363579181022942
537.9846156160347	3.0	feedback	n/a	n/a	n/a	n/a	n/a	n/a	n/a
541.4845349381212	2.5	scene	reward	violation	4	A	38	1	0.5986595039721578
543.9845349381212	3.0	feedback	n/a	n/a	n/a	n/a	n/a	n/a	n/a
547.4844494061545	2.5	scene	neutral	nonviolation	4	A	75	1	0.7937507429160178
549.9844494061545	3.0	feedback	n/a	n/a	n/a	n/a	n/a	n/a	n/a
553.484376009088	2.5	scene	reward	nonviolation	4	A	88	1	0.5628284339327365
555.984376009088	3.0	feedback	n/a	n/a	n/a	n/a	n/a	n/a	n/a
559.4842908680439	2.5	scene	neutral	nonviolation	4	A	87	1	0.5639088940806687
561.9842908680439	3.0	feedback	n/a	n/a	n/a	n/a	n/a	n/a	n/a
565.4842147619929	2.5	scene	reward	violation	4	A	20	1	0.5309272659942508
567.9842147619929	3.0	feedback	n/a	n/a	n/a	n/a	n/a	n/a	n/a
571.4841379870195	2.5	scene	neutral	nonviolation	4	A	67	1	0.8130620180163532
573.9841379870195	3.0	feedback	n/a	n/a	n/a	n/a	n/a	n/a	n/a
577.4840586071367	2.5	scene	reward	nonviolation	4	A	68	1	0.5921410659793764
579.9840586071367	3.0	feedback	n/a	n/a	n/a	n/a	n/a	n/a	n/a
583.4839740451425	2.5	scene	neutral	nonviolation	4	A	65	1	0.7062641179654747
585.9839740451425	3.0	feedback	n/a	n/a	n/a	n/a	n/a	n/a	n/a
