onset	duration	trial_type	subcategory	response_accuracy	response_time
13.502239720895886	0.5	face	male	1	0.3844883479177952
15.002216432709247	0.5	face	female	1	0.4665146190673113
16.502200877759606	0.5	face	male	1	0.5475342939607799
18.002190709114075	0.5	face	female	1	0.5235439618118107
19.502162395976484	0.5	face	female	1	0.44657438714057207
21.002143112011254	0.5	face	male	1	0.5304752239026129
22.502118405885994	0.5	face	male	1	0.3636184809729457
24.002108776010573	0.5	face	male	1	0.4306238400749862
25.502082783728838	0.5	face	female	1	0.5286569623276591
27.002061950974166	0.5	face	female	1	0.4496726901270449
43.50184526480734	0.5	face	female	1	0.4998899260535836
45.001824042759836	0.5	face	male	1	0.41390403220430017
46.50179457711056	0.5	face	male	1	0.46894252579659224
48.00178285501897	0.5	face	female	1	0.4789516390301287
49.501761144027114	0.5	face	male	1	0.4479718026705086
51.00174410501495	0.5	face	female	1	0.5219936249777675
52.5017245397903	0.5	face	female	1	0.48200914915651083
54.001715149730444	0.5	face	female	1	0.440026871394366
55.501698344014585	0.5	face	male	1	0.4990451168268919
57.00167396571487	0.5	face	male	1	0.4150642710737884
73.5014584409073	0.5	scene	outdoor	1	0.5882791657932103
75.00463631004095	0.5	scene	indoor	1	0.6921007307246327
76.5014210017398	0.5	scene	indoor	1	0.42125304229557514
78.00138496793807	0.5	scene	outdoor	1	0.49535727594047785
79.50137628475204	0.5	scene	outdoor	1	0.48436926817521453
81.00134521303698	0.5	scene	indoor	1	0.5303940800949931
82.5013249157928	0.5	scene	indoor	1	0.43841824494302273
84.00131414970383	0.5	scene	outdoor	1	0.48042301135137677
85.5012867548503	0.5	scene	outdoor	1	0.4234612360596657
87.00127632496879	0.5	scene	indoor	1	0.6864655427634716
103.50104555673897	0.5	scene	outdoor	1	0.762697238009423
105.00450292695314	0.5	scene	indoor	1	0.5802377611398697
106.50101691298187	0.5	scene	outdoor	0	0.546724840067327
108.00098460307345	0.5	scene	indoor	1	0.8407631008885801
109.50096619781107	0.5	scene	indoor	0	0.46077661495655775
111.00095622707158	0.5	scene	indoor	n/a	n/a
112.50092865899205	0.5	scene	indoor	1	0.6388121359050274
114.00090751191601	0.5	scene	outdoor	1	0.49784331722185016
115.50088714202866	0.5	scene	outdoor	1	0.5178582547232509
117.00087057380006	0.5	scene	outdoor	1	0.5228757881559432
133.50064497394487	0.5	face	male	1	0.47810940677300096
135.0023914957419	0.5	face	female	1	0.4303554370999336
136.50061335694045	0.5	face	male	1	0.49213240994140506
138.00058353086933	0.5	face	male	1	0.44917250610888004
139.500565669965	0.5	face	female	1	0.49919196777045727
141.0005457107909	0.5	face	male	1	0.4692098810337484
142.500528129749	0.5	face	female	1	0.4842310380190611
144.0005086278543	0.5	face	female	1	0.590239689219743
145.50054652569816	0.5	face	male	1	0.4962058183737099
147.00048139179125	0.5	face	female	1	0.5342674222774804
163.50025750277564	0.5	object	manmade	1	0.5394970900379121
165.00148635171354	0.5	object	natural	0	0.6512673562392592
166.50021360069513	0.5	object	manmade	1	0.6905370270833373
168.00018457183614	0.5	object	manmade	1	0.7185674239881337
169.50016646180302	0.5	object	natural	1	0.5325950463302433
171.0001471778378	0.5	object	manmade	1	0.536604855209589
172.5001254538074	0.5	object	manmade	1	0.5896230400539935
174.00011401204392	0.5	object	natural	1	0.6316370000131428
175.50009870994836	0.5	object	natural	0	0.6306567150168121
177.0000767307356	0.5	object	natural	1	0.7807097709737718
193.4998575109057	0.5	object	manmade	1	0.6069012288935483
194.99983742507175	0.5	object	natural	1	0.5989231816492975
196.4998138770461	0.5	object	manmade	1	0.6648637498728931
197.99978538881987	0.5	object	natural	1	0.6528472420759499
199.49977777106687	0.5	object	natural	1	0.9969829809851944
200.9997452609241	0.5	object	natural	1	0.5040102507919073
202.4997274246998	0.5	object	manmade	1	0.4929876853711903
203.99971677875146	0.5	object	manmade	1	0.7440410032868385
205.49968516407534	0.5	object	natural	1	0.5730730840004981
206.9996711597778	0.5	object	manmade	1	0.49908748595044017
223.49944491591305	0.5	scene	indoor	1	0.49231368489563465
224.9994304147549	0.5	scene	outdoor	1	0.39932570001110435
226.49940855707973	0.5	scene	outdoor	1	0.46035190066322684
227.9993846048601	0.5	scene	indoor	1	0.5513785271905363
229.49936924269423	0.5	scene	indoor	1	0.6353862890973687
230.99934856174514	0.5	scene	outdoor	1	0.47440968826413155
232.4993290118873	0.5	scene	indoor	0	0.46434783982113004
233.99930514814332	0.5	scene	outdoor	1	0.5964579847641289
235.4992892849259	0.5	scene	outdoor	1	0.5794763639569283
236.99926496483386	0.5	scene	indoor	1	0.5205151652917266
253.49906471278518	0.5	scene	indoor	1	0.6477033910341561
254.99903601780534	0.5	scene	outdoor	1	0.6787303821183741
256.4990213420242	0.5	scene	outdoor	1	0.5437404667027295
257.99899826804176	0.5	scene	indoor	1	0.700771692674607
259.4989681011066	0.5	scene	indoor	1	0.5588025846518576
260.9989446811378	0.5	scene	outdoor	1	0.5468212915584445
262.4989266619086	0.5	scene	outdoor	1	0.570815603248775
263.9989100759849	0.5	scene	indoor	1	0.6098611918278039
265.49888662900776	0.5	scene	outdoor	1	0.5688780988566577
266.9988647229038	0.5	scene	indoor	1	0.5559040908701718
283.498648731038	0.5	face	female	1	0.4541189670562744
284.9986473368481	0.5	face	male	1	0.46999430004507303
286.49860796378925	0.5	face	female	1	0.45916116517037153
287.9985990249552	0.5	face	male	1	0.48016656190156937
289.49856448173523	0.5	face	male	1	0.561199963092804
290.9985522450879	0.5	face	female	1	0.5062199817039073
292.49852551007643	0.5	face	male	1	0.5422422359697521
293.9985053129494	0.5	face	female	1	0.5922668701969087
295.49848868185654	0.5	face	male	1	0.55828080419451
296.9984648008831	0.5	face	female	1	0.5143054821528494
313.49825014313683	0.5	object	natural	1	0.5345212826505303
314.9982387009077	0.5	object	natural	1	0.5035288040526211
316.4982193079777	0.5	object	manmade	1	0.5675602410919964
317.99818421388045	0.5	object	manmade	1	0.5405852780677378
319.4981852681376	0.5	object	manmade	1	0.5935934027656913
320.99814352672547	0.5	object	manmade	1	0.596631333231926
322.4981276858598	0.5	object	manmade	1	0.6536432448774576
323.99810810992494	0.5	object	natural	1	0.6246580751612782
325.4980865549296	0.5	object	natural	1	0.4646899211220443
326.99806454312056	0.5	object	natural	1	0.5637085377238691
343.4978429679759	0.5	scene	indoor	1	0.5909330719150603
344.9978213701397	0.5	scene	outdoor	1	0.460949984844774
346.4978069579229	0.5	scene	indoor	1	0.7079694052226841
347.99778439989313	0.5	scene	outdoor	1	0.6349930460564792
349.4977692877874	0.5	scene	outdoor	1	0.69300597300753
350.9977452890016	0.5	scene	indoor	1	0.6260254210792482
352.4977364530787	0.5	scene	indoor	1	0.5890418719500303
353.9977034390904	0.5	scene	indoor	1	0.5980697916820645
355.4976865728386	0.5	scene	outdoor	1	0.5309725389815867
356.99767478974536	0.5	scene	outdoor	1	0.47209978429600596
373.4974432368763	0.5	object	manmade	1	0.6193389212712646
374.9974219449796	0.5	object	natural	1	0.5733548477292061
376.49741368275136	0.5	object	natural	1	0.5183643130585551
377.9973825858906	0.5	object	manmade	1	0.6644017579965293
379.49736803071573	0.5	object	manmade	1	0.7724072472192347
380.99734254786745	0.5	object	natural	1	0.4823558460921049
382.4806556808762	0.5	object	manmade	1	0.7471263268962502
383.98062907205895	0.5	object	natural	1	0.5610753600485623
385.4806098761037	0.5	object	manmade	1	0.7360922270454466
386.9805916827172	0.5	object	natural	1	0.8301887521520257
403.4803743758239	0.5	face	female	1	0.5493892021477222
404.9803606350906	0.5	face	male	1	0.43643136881291866
406.4803457870148	0.5	face	male	1	0.45143331587314606
407.9803178529255	0.5	face	male	1	0.5574620640836656
409.480291698128	0.5	face	female	1	0.48849574802443385
410.9802752728574	0.5	face	male	1	0.5865086452104151
412.4802546049468	0.5	face	male	1	0.5055299648083746
413.9802325107157	0.5	face	female	1	0.516553427092731
415.48021519882604	0.5	face	female	1	0.4865675983019173
416.9801938338205	0.5	face	female	1	0.46059462195262313
433.47997677791864	0.5	object	manmade	1	0.5238088751211762
434.97996087092906	0.5	object	manmade	1	0.5388243761844933
436.47995209274814	0.5	object	natural	1	0.6178400171920657
437.97991672577336	0.5	object	natural	1	0.5708728632889688
439.47989249881357	0.5	object	manmade	1	0.5278911432251334
440.9798845970072	0.5	object	manmade	1	0.5949050807394087
442.47986713191494	0.5	object	natural	1	0.4959223731420934
443.97983273491263	0.5	object	manmade	1	0.6779515352100134
445.47981478087604	0.5	object	natural	1	0.5719703589566052
446.9797978620045	0.5	object	natural	1	0.5719943740405142
