onset	duration	trial_type	condition	repetition	pairmate	pairID	category	subcategory	response_accuracy	response_time
13.509395994013175	1	prelearning	violation	1	B	6	scene	outdoor	1	0.8792087350739166
16.509362006094307	1	prelearning	violation	1	B	2	scene	indoor	1	0.5352354899514467
19.509321268997155	1	prelearning	nonviolation	1	A	55	scene	outdoor	1	0.7301971270935609
22.50928144901991	1	prelearning	nonviolation	1	B	49	scene	outdoor	1	0.7823204629821703
25.509241612046022	1	prelearning	violation	1	B	5	scene	indoor	1	0.5863643200136721
28.509202060056854	1	prelearning	nonviolation	1	A	49	scene	outdoor	1	0.8133626900380477
31.50916307407897	1	prelearning	nonviolation	1	A	53	scene	indoor	1	0.6124420029809698
34.50912883807905	1	prelearning	nonviolation	1	A	56	scene	outdoor	1	0.6044739159988239
37.5090932440944	1	prelearning	nonviolation	1	B	54	scene	indoor	1	0.5925042459275573
40.50904464209452	1	prelearning	nonviolation	1	B	51	scene	outdoor	1	0.6675540530122817
43.50900522107258	1	prelearning	nonviolation	1	B	52	scene	indoor	1	0.5595972399460152
46.50896652799565	1	prelearning	violation	1	B	8	scene	indoor	1	0.8036376080708578
49.508936571073725	1	prelearning	nonviolation	1	A	51	scene	indoor	1	0.7536638239398599
52.50888424902222	1	prelearning	nonviolation	1	B	50	scene	outdoor	1	0.5017249380471185
55.50885210908018	1	prelearning	violation	1	A	7	scene	outdoor	1	0.5757540889317171
58.5088077520486	1	prelearning	violation	1	A	3	scene	outdoor	1	0.6337999530369416
61.50877621001564	1	prelearning	nonviolation	1	B	55	scene	outdoor	1	0.5638310799840838
64.50873198709449	1	prelearning	violation	1	A	4	scene	indoor	1	0.8338825569953771
67.5086845200276	1	prelearning	nonviolation	1	A	54	scene	outdoor	1	0.772926185047254
70.50865592109041	1	prelearning	nonviolation	1	A	52	scene	indoor	1	0.6129483350086957
73.5086086851079	1	prelearning	violation	1	A	2	scene	outdoor	1	0.6789945679483935
76.50857032602653	1	prelearning	violation	1	A	6	scene	indoor	1	0.578037380008027
79.50853691203521	1	prelearning	violation	1	B	7	scene	outdoor	1	0.6630750349722803
82.50848909502383	1	prelearning	violation	1	B	4	scene	outdoor	1	0.6291165620787069
85.5084583570715	1	prelearning	nonviolation	1	B	53	scene	indoor	1	0.5911558379884809
88.50840895308647	1	prelearning	violation	1	A	1	scene	indoor	1	0.6582032669102773
91.50837722606957	1	prelearning	violation	1	A	8	scene	indoor	0	0.5822297650156543
94.50833081500605	1	prelearning	violation	1	A	5	scene	outdoor	1	0.544278456014581
97.5082932600053	1	prelearning	violation	1	B	3	scene	outdoor	1	0.6133193090790883
100.50826117710676	1	prelearning	nonviolation	1	A	50	scene	indoor	1	0.6343458530027419
103.508211959037	1	prelearning	violation	1	B	1	scene	indoor	1	0.5164029459701851
106.50817773805466	1	prelearning	nonviolation	1	B	56	scene	indoor	0	0.5684371279785411
109.50813925103284	1	learning	nonviolation	2	A	49	scene	outdoor	1	0.5945024300599471
112.50809038104491	1	learning	nonviolation	2	B	49	scene	outdoor	1	0.5905197929823771
115.5080509040272	1	learning	violation	2	A	1	scene	indoor	1	0.584561352035962
118.5080110920826	1	learning	violation	2	B	1	scene	indoor	1	0.5146016760263592
121.50797204102855	1	learning	violation	2	A	2	scene	outdoor	1	0.5926410820102319
124.50793531199452	1	learning	violation	2	B	2	scene	indoor	1	0.5686770071042702
127.50789858202916	1	learning	nonviolation	2	A	50	scene	indoor	1	0.5227143110241741
130.50785137608182	1	learning	nonviolation	2	B	50	scene	outdoor	1	0.5657646539621055
133.50781067402568	1	learning	violation	2	A	3	scene	outdoor	1	0.5068046509986743
136.50777285906952	1	learning	violation	2	B	3	scene	outdoor	1	0.5228440889623016
139.5077309430344	1	learning	violation	2	A	4	scene	indoor	1	0.5258829189697279
142.50770053407174	1	learning	violation	2	B	4	scene	outdoor	1	0.4489199969684705
145.50765517307443	1	learning	violation	3	A	2	scene	outdoor	1	0.515958713949658
148.50761222001162	1	learning	violation	3	B	2	scene	indoor	1	0.5350043020443991
151.50757719005924	1	learning	nonviolation	2	A	51	scene	indoor	1	0.6420495889615268
154.50753210205585	1	learning	nonviolation	2	B	51	scene	outdoor	1	0.937001217971556
157.50749009405263	1	learning	violation	2	A	5	scene	outdoor	1	0.5371251889737323
160.5074477600865	1	learning	violation	2	B	5	scene	indoor	1	0.5351685049245134
163.50741192209534	1	learning	violation	2	A	6	scene	indoor	1	0.6912138490006328
166.50737231306266	1	learning	violation	2	B	6	scene	outdoor	1	0.5062500110361725
169.50733239308462	1	learning	violation	3	A	3	scene	outdoor	1	0.5352876839460805
172.50729983299968	1	learning	violation	3	B	3	scene	outdoor	1	0.5193223920650779
175.5072513590567	1	learning	violation	2	A	7	scene	outdoor	1	0.4923689380520955
178.50720765499864	1	learning	violation	2	B	7	scene	outdoor	1	0.5364132421091199
181.4904982621083	1	learning	nonviolation	3	A	50	scene	indoor	1	0.495122151914984
184.49045324604958	1	learning	nonviolation	3	B	50	scene	outdoor	1	0.5971739529632032
187.50709672307133	1	learning	nonviolation	2	A	52	scene	indoor	1	0.5325239900266752
190.50705116905738	1	learning	nonviolation	2	B	52	scene	indoor	1	0.5935675429645926
193.49033772409888	1	learning	nonviolation	3	A	49	scene	outdoor	1	0.5282827379414812
196.5069700900931	1	learning	nonviolation	3	B	49	scene	outdoor	1	0.5786581739084795
199.4902598500485	1	learning	violation	3	A	1	scene	indoor	1	0.5313608270371333
202.49022553605027	1	learning	violation	3	B	1	scene	indoor	1	0.5263965700287372
205.49019242310897	1	learning	nonviolation	2	A	53	scene	indoor	1	0.5394321779021993
208.49013384408318	1	learning	nonviolation	2	B	53	scene	indoor	1	0.6694936819840223
211.49010086106136	1	learning	violation	3	A	4	scene	indoor	1	0.6755224169464782
214.49006254202686	1	learning	violation	3	B	4	scene	outdoor	1	0.5025652020704001
217.49001887999472	1	learning	violation	2	A	8	scene	indoor	1	1.0406095311045649
220.4899750320474	1	learning	violation	2	B	8	scene	indoor	1	0.6146547000389546
223.48994068102908	1	learning	nonviolation	3	A	51	scene	indoor	1	0.5486890210304409
226.48989514203282	1	learning	nonviolation	3	B	51	scene	outdoor	1	0.7747285959776491
229.48986028402575	1	learning	nonviolation	4	A	49	scene	outdoor	1	0.4987663440406322
232.48982100805733	1	learning	nonviolation	4	B	49	scene	outdoor	1	0.7637791760498658
235.48978012299634	1	learning	nonviolation	3	A	52	scene	indoor	1	0.4968411100562662
238.48974149604328	1	learning	nonviolation	3	B	52	scene	indoor	1	0.5758859029738232
241.4896984330844	1	learning	violation	3	A	6	scene	indoor	1	0.7529323539929464
244.48965532705188	1	learning	violation	3	B	6	scene	outdoor	1	0.522975179948844
247.48961362009868	1	learning	violation	4	A	2	scene	outdoor	1	0.4790133679052815
250.48957001499372	1	learning	violation	4	B	2	scene	indoor	1	0.4930611700983718
253.48953512508888	1	learning	nonviolation	4	A	50	scene	indoor	1	0.4950936719542369
256.48949658300256	1	learning	nonviolation	4	B	50	scene	outdoor	1	0.5461336900480092
259.48946335702203	1	learning	violation	4	A	4	scene	indoor	1	0.4891707160277292
262.4894161510747	1	learning	violation	4	B	4	scene	outdoor	1	0.5172136209439486
265.48937511607073	1	learning	violation	3	A	5	scene	outdoor	1	0.4842585290316492
268.4893387970514	1	learning	violation	3	B	5	scene	indoor	1	0.4712930199457333
271.4892931031063	1	restudy	nonviolation	5	B	50	scene	outdoor	1	0.5333690729457885
274.4892553400714	1	learning	nonviolation	3	A	53	scene	indoor	1	0.5433754730038345
277.4892067729961	1	learning	nonviolation	3	B	53	scene	indoor	1	0.5174254270968959
280.4891728580696	1	learning	violation	3	A	7	scene	outdoor	1	0.6354574899887666
283.48912874504464	1	learning	violation	3	B	7	scene	outdoor	1	0.5725038970122114
286.4890938500175	1	learning	violation	3	A	8	scene	indoor	1	0.5945395960006863
289.4890531220008	1	learning	violation	3	B	8	scene	indoor	1	0.5275847431039438
292.48901768110227	1	learning	violation	4	A	3	scene	outdoor	1	0.5276144829113036
295.4889757310739	1	learning	violation	4	B	3	scene	outdoor	1	0.586664833012037
298.48892951209564	1	restudy	nonviolation	6	B	50	scene	outdoor	1	0.5157045699888839
301.48889438610064	1	violation	violation	5	A	4	scene	indoor	1	0.5157385999336839
304.4888574390206	1	violation	violation	1	X	4	face	male	1	0.7417819109978154
307.48881215706933	1	learning	violation	4	A	1	scene	indoor	1	0.5118240920128301
310.48877590906335	1	learning	violation	4	B	1	scene	indoor	1	0.4578641339903698
313.4887283570133	1	learning	nonviolation	4	A	52	scene	indoor	1	0.5449094180949032
316.48868852003943	1	learning	nonviolation	4	B	52	scene	indoor	1	0.4419478559866548
319.48865288507665	1	learning	nonviolation	4	A	53	scene	indoor	1	0.463982249959372
322.4886076690164	1	learning	nonviolation	4	B	53	scene	indoor	1	0.6020331290783361
325.4885695260018	1	learning	violation	4	A	6	scene	indoor	1	0.5009876900585368
328.488526357105	1	learning	violation	4	B	6	scene	outdoor	1	0.6771105829393491
331.488482885994	1	learning	nonviolation	4	A	51	scene	indoor	1	0.43316091201268137
334.4884446630022	1	learning	nonviolation	4	B	51	scene	outdoor	1	0.7651956400368363
337.48840296000714	1	learning	violation	4	A	7	scene	outdoor	1	0.5502662190701813
340.4883693960728	1	learning	violation	4	B	7	scene	outdoor	1	0.567271867999807
343.4883324550465	1	restudy	nonviolation	5	B	49	scene	outdoor	1	0.7053150630090386
346.4882844320964	1	restudy	violation	5	B	4	scene	outdoor	1	0.5113567099906504
349.4882530340692	1	restudy	nonviolation	5	B	52	scene	indoor	1	0.5463859239825979
352.48821079707704	1	violation	violation	5	A	2	scene	outdoor	1	0.6674527849536389
355.4881704010768	1	violation	violation	1	X	2	face	female	1	0.5854757259367034
358.4881296959938	1	learning	violation	4	A	8	scene	indoor	0	0.447518055094406
361.48808085604105	1	learning	violation	4	B	8	scene	indoor	1	0.9295692610321566
364.48804096900864	1	violation	violation	5	A	1	scene	indoor	1	0.5246060820063576
367.48800322401803	1	violation	violation	1	X	1	face	female	1	0.5515767129836604
370.4879633890232	1	learning	violation	4	A	5	scene	outdoor	1	0.4936781140277162
373.487915461068	1	learning	violation	4	B	5	scene	indoor	1	0.5067324310075492
376.48787976603484	1	restudy	nonviolation	5	B	51	scene	outdoor	1	0.5777676539728418
379.4878457360901	1	restudy	nonviolation	6	B	52	scene	indoor	1	0.434806557954289
382.48779740510514	1	violation	violation	5	A	3	scene	outdoor	1	0.5108761719893664
385.48775767209014	1	violation	violation	1	X	3	face	male	1	0.5928873469820246
388.4877159950556	1	violation	violation	6	A	4	scene	indoor	1	0.4769269690150395
391.48768202704383	1	violation	violation	1	Y	4	face	male	1	0.524967962061055
394.4876355030574	1	violation	violation	5	A	6	scene	indoor	1	0.709015610977076
397.48759478610015	1	violation	violation	1	X	6	face	male	1	0.4159778238972649
400.4875577000202	1	violation	violation	5	A	8	scene	indoor	1	0.587090426008217
403.4875127170235	1	violation	violation	1	X	8	face	female	1	0.596133143058978
406.4874744490953	1	violation	violation	5	A	5	scene	outdoor	1	0.4811748589854688
409.48744144104415	1	violation	violation	1	X	5	face	female	1	0.5382057640235871
412.4873919840902	1	learning	nonviolation	2	A	54	scene	outdoor	1	0.5951757369330153
415.4873505430296	1	learning	nonviolation	2	B	54	scene	indoor	1	0.6292960570426658
418.4873111410998	1	restudy	nonviolation	5	B	53	scene	indoor	1	0.6372763749677688
421.48727052402677	1	violation	violation	5	A	7	scene	outdoor	1	0.5103771340800449
424.4872395161074	1	violation	violation	1	X	7	face	male	1	0.6714163839351386
427.48718917008966	1	restudy	violation	5	B	2	scene	indoor	1	0.4814589329762384
430.48715612909285	1	restudy	nonviolation	6	B	51	scene	outdoor	1	0.6284718419192359
433.487116442062	1	restudy	nonviolation	6	B	49	scene	outdoor	1	0.5315417799865827
436.4870671210811	1	learning	nonviolation	2	A	55	scene	outdoor	1	0.9185856899712236
439.4870276900474	1	learning	nonviolation	2	B	55	scene	outdoor	1	0.5286272299708799
442.4869954360183	1	restudy	violation	6	B	4	scene	outdoor	1	0.5646507310448214
445.4869435511063	1	restudy	violation	5	B	1	scene	indoor	1	0.5897099589928985
448.48690536699723	1	restudy	violation	5	B	3	scene	outdoor	1	0.5096797751029953
451.48687128210435	1	restudy	violation	5	B	7	scene	outdoor	1	0.5837871929397807
454.4868251180742	1	restudy	violation	5	B	8	scene	indoor	1	0.4648331379285082
457.48678022809327	1	learning	nonviolation	2	A	56	scene	outdoor	1	0.647792330943048
460.48674067703536	1	learning	nonviolation	2	B	56	scene	indoor	0	0.6858302149921656
463.4867022680119	1	restudy	nonviolation	6	B	53	scene	indoor	1	0.822952623013407
466.48666081100237	1	violation	violation	6	A	7	scene	outdoor	1	0.5569998380960897
469.4866239780095	1	violation	violation	1	Y	7	face	male	1	0.5150364500004798
472.4865802910645	1	restudy	violation	5	B	6	scene	outdoor	1	0.4890828860225156
475.4865479450673	1	violation	violation	6	A	3	scene	outdoor	1	0.5911061540246011
478.48649865109473	1	violation	violation	1	Y	3	face	male	1	0.5891601679613814
481.4864576160908	1	learning	nonviolation	3	A	55	scene	outdoor	1	0.5302005569683388
484.48641726700583	1	learning	nonviolation	3	B	55	scene	outdoor	1	0.444157307036221
487.48638417408796	1	violation	violation	6	A	1	scene	indoor	1	0.5442116740159689
490.486336782109	1	violation	violation	1	Y	1	face	female	0	0.5943235439481214
493.4862951830728	1	learning	nonviolation	3	A	56	scene	outdoor	1	0.554280532989651
496.4862541420151	1	learning	nonviolation	3	B	56	scene	indoor	0	0.5384044910315424
499.486214197008	1	restudy	violation	5	B	5	scene	indoor	1	0.7004485070938244
502.4861742390786	1	learning	nonviolation	3	A	54	scene	outdoor	1	0.4864827219862491
505.4861325121019	1	learning	nonviolation	3	B	54	scene	indoor	1	0.8655294709606096
508.4860916089965	1	restudy	violation	6	B	3	scene	outdoor	1	0.5545622520148754
511.4860519421054	1	violation	violation	6	A	2	scene	outdoor	1	0.567608565906994
514.4860114330659	1	violation	violation	1	Y	2	face	female	1	0.64065287692938
517.4859695780324	1	learning	nonviolation	4	A	55	scene	outdoor	1	0.5216979190008715
520.4859294100897	1	learning	nonviolation	4	B	55	scene	outdoor	1	0.5297306409338489
523.4858871060424	1	violation	violation	6	A	8	scene	indoor	1	0.6337786499643698
526.4858483891004	1	violation	violation	1	Y	8	face	female	1	0.5908189539331943
529.4858102380531	1	learning	nonviolation	4	A	56	scene	outdoor	1	0.5678602029802278
532.4857690170173	1	learning	nonviolation	4	B	56	scene	indoor	0	0.4548936190549284
535.4857220620614	1	violation	violation	6	A	5	scene	outdoor	1	0.5499403530266136
538.4856831610668	1	violation	violation	1	Y	5	face	female	1	0.6729890659917146
541.4856427370105	1	restudy	violation	6	B	2	scene	indoor	1	0.6450254090595989
544.4856033510297	1	violation	violation	6	A	6	scene	indoor	1	0.618060693028383
547.4855656611035	1	violation	violation	1	Y	6	face	male	1	0.6051018929574639
550.4855229690438	1	restudy	nonviolation	5	B	56	scene	indoor	0	0.6521465589758009
553.4854818180902	1	restudy	violation	6	B	7	scene	outdoor	1	0.6381908389739692
556.4854398930911	1	restudy	violation	6	B	6	scene	outdoor	1	0.5062238569371402
559.4853991130367	1	learning	nonviolation	4	A	54	scene	outdoor	1	0.5922722889808938
562.485356632038	1	learning	nonviolation	4	B	54	scene	indoor	1	0.8883125520078465
565.4853178870399	1	restudy	nonviolation	6	B	56	scene	indoor	0	0.5093484539538622
568.4852805630071	1	restudy	violation	6	B	1	scene	indoor	1	0.5583838369930163
571.4852389340523	1	restudy	nonviolation	5	B	55	scene	outdoor	1	0.4714342169463634
574.4851966419956	1	restudy	nonviolation	5	B	54	scene	indoor	1	0.5134773820172995
577.485144872102	1	restudy	violation	6	B	8	scene	indoor	1	0.5085290239658207
580.4851156939985	1	restudy	nonviolation	6	B	55	scene	outdoor	1	0.45555298705585295
583.485074714059	1	restudy	nonviolation	6	B	54	scene	indoor	1	0.4965965299634263
586.4850401190342	1	restudy	violation	6	B	5	scene	indoor	1	0.5276335260132328
