onset	duration	trial_type	condition	repetition	pairmate	pairID	category	subcategory	response_accuracy	response_time
13.513611588976344	1	prelearning	violation	1	A	31	scene	outdoor	1	0.689123489020858
16.513562184991315	1	prelearning	violation	1	A	32	scene	outdoor	1	0.6121758109657094
19.513522931956686	1	prelearning	violation	1	A	27	scene	outdoor	1	0.5082089960342273
22.513483182003256	1	prelearning	nonviolation	1	A	74	scene	indoor	1	0.4402510619838722
25.51344154699473	1	prelearning	nonviolation	1	A	77	scene	indoor	1	0.4862948619993404
28.513412903004788	1	prelearning	violation	1	B	25	scene	outdoor	1	0.5653250439791009
31.513361430959772	1	prelearning	violation	1	B	28	scene	indoor	0	0.780372575041838
34.513321842008736	1	prelearning	violation	1	B	27	scene	outdoor	1	0.5353443420026451
37.513280888961155	1	prelearning	nonviolation	1	B	78	scene	indoor	1	0.6034584150183946
40.51324013900012	1	prelearning	violation	1	B	32	scene	indoor	1	0.5914944749674761
43.513199559994966	1	prelearning	nonviolation	1	B	80	scene	indoor	1	0.5385380199877545
46.51314757898217	1	prelearning	violation	1	A	28	scene	indoor	1	0.5066059720120393
49.51311969198287	1	prelearning	violation	1	A	25	scene	indoor	1	0.7046204369980842
52.513077531009905	1	prelearning	violation	1	B	26	scene	outdoor	1	0.6456585109699517
55.51303720701253	1	prelearning	nonviolation	1	A	80	scene	outdoor	1	0.547701112984214
58.51299767795717	1	prelearning	violation	1	B	30	scene	indoor	1	0.6547380420379341
61.51295823900728	1	prelearning	nonviolation	1	B	76	scene	outdoor	1	0.9807772969943472
64.51291556697106	1	prelearning	violation	1	A	30	scene	indoor	1	0.5978196560172364
67.51287443097681	1	prelearning	nonviolation	1	B	77	scene	outdoor	1	0.5938680460094474
70.51283354096812	1	prelearning	nonviolation	1	B	79	scene	indoor	1	0.5229098600102589
73.51278827199712	1	prelearning	violation	1	B	29	scene	outdoor	0	0.710957356961444
76.51275513897417	1	prelearning	nonviolation	1	A	73	scene	outdoor	1	0.6109728530282155
79.51270866696723	1	prelearning	nonviolation	1	A	79	scene	indoor	1	0.6240318000200205
82.51268587500091	1	prelearning	violation	1	B	31	scene	indoor	1	0.5620569660095498
85.51263928099071	1	prelearning	nonviolation	1	A	76	scene	outdoor	1	0.5331018569995649
88.51259480096633	1	prelearning	nonviolation	1	B	73	scene	outdoor	1	0.5981437510345131
91.4958699879935	1	prelearning	nonviolation	1	B	75	scene	indoor	1	0.6038741340162233
94.49582753999857	1	prelearning	violation	1	A	26	scene	indoor	0	0.6549168239580467
97.49579067499144	1	prelearning	nonviolation	1	A	75	scene	outdoor	1	0.6089545019785874
100.49574784800645	1	prelearning	nonviolation	1	B	74	scene	outdoor	1	0.5239964029751718
103.49572467099642	1	prelearning	violation	1	A	29	scene	outdoor	1	0.6370158449863084
106.51234268100235	1	prelearning	nonviolation	1	A	78	scene	indoor	1	0.7054074429906905
109.49562656797933	1	learning	violation	2	A	25	scene	indoor	1	0.6341194470296614
112.49559159000636	1	learning	violation	2	B	25	scene	outdoor	1	0.7381507719983347
115.49555269500706	1	learning	nonviolation	2	A	73	scene	outdoor	1	0.5611987040028907
118.49550689500755	1	learning	nonviolation	2	B	73	scene	outdoor	1	0.4922403719974682
121.49546695000026	1	learning	nonviolation	2	A	74	scene	indoor	1	0.7512801719713025
124.49542459100485	1	learning	nonviolation	2	B	74	scene	outdoor	1	0.5963231319910847
127.49538127699634	1	learning	violation	2	A	26	scene	indoor	1	0.8113659839727916
130.4953532239888	1	learning	violation	2	B	26	scene	outdoor	1	0.5824000220163725
133.49530576798134	1	learning	nonviolation	2	A	75	scene	outdoor	1	0.5524439089931548
136.49525955895658	1	learning	nonviolation	2	B	75	scene	indoor	1	0.6944903350085951
139.49522238597274	1	learning	violation	3	A	25	scene	indoor	1	0.6585309130023234
142.49518053798238	1	learning	violation	3	B	25	scene	outdoor	1	0.6435770699754357
145.49514306196943	1	learning	violation	2	A	27	scene	outdoor	1	0.6316080760443583
148.49510637897762	1	learning	violation	2	B	27	scene	outdoor	1	0.599646806018427
151.49505781300832	1	learning	nonviolation	2	A	76	scene	outdoor	1	0.6636891549569555
154.49501863896145	1	learning	nonviolation	2	B	76	scene	outdoor	1	0.6287344280281104
157.49497660598718	1	learning	nonviolation	3	A	74	scene	indoor	1	0.6217803760082461
160.49496490199815	1	learning	nonviolation	3	B	74	scene	outdoor	1	0.6018095460021868
163.4949077459751	1	learning	violation	3	A	27	scene	outdoor	1	0.5528516970225611
166.49485340696992	1	learning	violation	3	B	27	scene	outdoor	1	0.7718321240390651
169.49481569998898	1	learning	nonviolation	2	A	77	scene	indoor	0	0.7419360670028254
172.4947880099644	1	learning	nonviolation	2	B	77	scene	outdoor	1	0.5349609430413693
175.49473094695713	1	learning	nonviolation	3	A	76	scene	outdoor	1	0.6390223310445435
178.4946902049705	1	learning	nonviolation	3	B	76	scene	outdoor	1	0.8290656339959241
181.49464695900681	1	learning	nonviolation	4	A	74	scene	indoor	1	0.4121035699499771
184.4946064039832	1	learning	nonviolation	4	B	74	scene	outdoor	1	0.6061491490108892
187.49456517596263	1	learning	violation	4	A	25	scene	indoor	1	0.5491902570356615
190.49452333798402	1	learning	violation	4	B	25	scene	outdoor	1	0.587238360021729
193.4944974409882	1	learning	nonviolation	2	A	78	scene	indoor	1	0.6232573129818775
196.49444009701256	1	learning	nonviolation	2	B	78	scene	indoor	1	0.5883224969729781
199.49440449499522	1	learning	violation	2	A	28	scene	indoor	1	0.5093496839981526
202.49436613899888	1	learning	violation	2	B	28	scene	indoor	1	0.6503897929796949
205.49431688495682	1	learning	violation	2	A	29	scene	outdoor	1	0.7384378260467201
208.4942747220048	1	learning	violation	2	B	29	scene	outdoor	1	0.9534917349810712
211.4942309439648	1	violation	violation	5	A	25	scene	indoor	1	0.6645299250376411
214.49420114897654	1	violation	violation	1	X	25	face	male	1	0.7855574929853901
217.49415135401068	1	learning	violation	4	A	27	scene	outdoor	1	0.5786350019625388
220.49411753198365	1	learning	violation	4	B	27	scene	outdoor	1	0.9046373310266064
223.49408008297905	1	learning	violation	3	A	26	scene	indoor	1	0.7377016110112891
226.49402689700943	1	learning	violation	3	B	26	scene	outdoor	1	0.8817324779811315
229.49398320500043	1	learning	nonviolation	3	A	75	scene	outdoor	1	0.7357738729915582
232.493950893986	1	learning	nonviolation	3	B	75	scene	indoor	1	0.7968084189924411
235.4939032389666	1	learning	nonviolation	3	A	73	scene	outdoor	1	0.9627877420280128
238.49386049900204	1	learning	nonviolation	3	B	73	scene	outdoor	1	1.1558972449856808
241.4938198499731	1	learning	violation	2	A	30	scene	indoor	1	0.7499381889938377
244.4937798589817	1	learning	violation	2	B	30	scene	indoor	0	0.9209960660082288
247.4937574979849	1	restudy	nonviolation	5	B	74	scene	outdoor	1	0.6820037030265667
250.49370328895748	1	violation	violation	5	A	27	scene	outdoor	1	0.5880647220183164
253.4936585800024	1	violation	violation	1	X	27	face	male	1	0.5661023680004291
256.49361180199776	1	restudy	violation	5	B	25	scene	outdoor	1	0.6571553999674506
259.493570851977	1	learning	nonviolation	3	A	78	scene	indoor	1	0.7941855150274932
262.49354908196256	1	learning	nonviolation	3	B	78	scene	indoor	1	1.0342158080311492
265.49348942301003	1	learning	violation	4	A	26	scene	indoor	1	0.8322766869678162
268.4934487880091	1	learning	violation	4	B	26	scene	outdoor	1	0.7893189339665696
271.49341079499567	1	learning	nonviolation	4	A	76	scene	outdoor	1	0.9183619620162062
274.4933641779935	1	learning	nonviolation	4	B	76	scene	outdoor	n/a	n/a
277.49332407995826	1	learning	violation	2	A	31	scene	outdoor	1	0.6914422390400432
280.49328315997263	1	learning	violation	2	B	31	scene	indoor	n/a	n/a
283.493238924013	1	violation	violation	6	A	25	scene	indoor	1	0.6085255459765904
286.4931975599611	1	violation	violation	1	Y	25	face	male	1	0.7165732849971391
289.4931568879984	1	learning	nonviolation	3	A	77	scene	indoor	1	0.6246082360157743
292.49311634298647	1	learning	nonviolation	3	B	77	scene	outdoor	1	0.6236489029834047
295.49307442299323	1	learning	violation	3	A	28	scene	indoor	1	0.7836971940123476
298.49303688097285	1	learning	violation	3	B	28	scene	indoor	1	0.8717393320403062
301.49299014400464	1	learning	violation	3	A	29	scene	outdoor	1	0.7097815509769134
304.4929456099635	1	learning	violation	3	B	29	scene	outdoor	1	0.6108222330221906
307.49290894297883	1	learning	violation	2	A	32	scene	outdoor	1	0.6908635760191828
310.49286710296286	1	learning	violation	2	B	32	scene	indoor	1	0.6949009110103361
313.49283159099286	1	violation	violation	5	A	26	scene	indoor	0	1.1019403170212172
316.49278833001154	1	violation	violation	1	X	26	face	male	1	0.6839997969800606
319.4927391039673	1	learning	violation	3	A	30	scene	indoor	1	0.5740552510251291
322.49269943201216	1	learning	violation	3	B	30	scene	indoor	1	0.6860735979862511
325.49265789298806	1	learning	nonviolation	2	A	79	scene	indoor	1	0.6031113339704461
328.49261747900164	1	learning	nonviolation	2	B	79	scene	indoor	1	1.0641559669747949
331.49257629801286	1	learning	nonviolation	2	A	80	scene	outdoor	1	1.0541929509490728
334.4925334249856	1	learning	nonviolation	2	B	80	scene	indoor	1	0.6872419560095295
337.4924968049745	1	learning	nonviolation	4	A	78	scene	indoor	1	0.6892860670341179
340.49244777299464	1	learning	nonviolation	4	B	78	scene	indoor	1	0.6053191180108115
343.49241057399195	1	restudy	nonviolation	6	B	74	scene	outdoor	n/a	n/a
346.4923661549692	1	learning	nonviolation	4	A	75	scene	outdoor	1	0.7274144089897163
349.492324988998	1	learning	nonviolation	4	B	75	scene	indoor	1	0.6294517799979076
352.49228911200765	1	learning	nonviolation	4	A	73	scene	outdoor	1	0.5894929839996621
355.4922426249832	1	learning	nonviolation	4	B	73	scene	outdoor	1	0.5755341150215827
358.49219885998167	1	restudy	violation	5	B	27	scene	outdoor	1	0.633574141014833
361.49215841596015	1	learning	violation	4	A	29	scene	outdoor	1	0.6216143360361457
364.49211600696435	1	learning	violation	4	B	29	scene	outdoor	1	0.5436638440005481
367.4920763479895	1	restudy	violation	6	B	25	scene	outdoor	1	0.585699682997074
370.49203311395826	1	restudy	nonviolation	5	B	76	scene	outdoor	1	0.6107508850400336
373.49200229899725	1	learning	violation	3	A	31	scene	outdoor	1	0.6507743559777737
376.49196388298884	1	learning	violation	3	B	31	scene	indoor	1	0.8398294359794818
379.49190988997003	1	restudy	violation	5	B	26	scene	outdoor	1	0.7378665970172733
382.49188336997764	1	learning	violation	4	A	28	scene	indoor	1	0.6998959649936296
385.491826137004	1	learning	violation	4	B	28	scene	indoor	1	0.7629546920070425
388.49179355299566	1	learning	violation	3	A	32	scene	outdoor	1	0.765009913011454
391.49175307096453	1	learning	violation	3	B	32	scene	indoor	1	0.6980259970296174
394.49170952400885	1	learning	nonviolation	4	A	77	scene	indoor	n/a	n/a
397.491660388012	1	learning	nonviolation	4	B	77	scene	outdoor	1	0.6181211129878648
400.49161853099935	1	learning	nonviolation	3	A	79	scene	indoor	1	0.5531592160114087
403.4915766679914	1	learning	nonviolation	3	B	79	scene	indoor	1	0.555205856973771
406.49153656000266	1	learning	nonviolation	3	A	80	scene	outdoor	1	0.7062590600107796
409.4915008500102	1	learning	nonviolation	3	B	80	scene	indoor	1	0.6242864839732647
412.4914503080072	1	restudy	nonviolation	5	B	78	scene	indoor	1	0.5753301419899799
415.49141104996664	1	violation	violation	5	A	28	scene	indoor	1	0.5633704999927431
418.49137247301405	1	violation	violation	1	X	28	face	female	1	0.7204090299783275
421.49132748297416	1	learning	violation	4	A	30	scene	indoor	1	0.6214572489843704
424.4912860079785	1	learning	violation	4	B	30	scene	indoor	1	0.7905087799881585
427.49124378699344	1	learning	nonviolation	4	A	79	scene	indoor	1	0.7725393639993854
430.49119983200217	1	learning	nonviolation	4	B	79	scene	indoor	1	0.6295817029895261
433.49116105999565	1	restudy	nonviolation	5	B	75	scene	indoor	1	0.8056342040072195
436.49111742997775	1	violation	violation	5	A	29	scene	outdoor	1	0.9596717220265418
439.49107669800287	1	violation	violation	1	X	29	face	male	1	0.7897150249918923
442.4910439910018	1	violation	violation	6	A	26	scene	indoor	1	0.840739756997209
445.4909940880025	1	violation	violation	1	Y	26	face	male	1	0.9867939439718612
448.4909499349888	1	violation	violation	6	A	27	scene	outdoor	1	0.5378347699879669
451.49091589701135	1	violation	violation	1	Y	27	face	male	1	0.6528688699472696
454.49088007898536	1	learning	nonviolation	4	A	80	scene	outdoor	0	0.7969071050174534
457.4908284349949	1	learning	nonviolation	4	B	80	scene	indoor	1	0.6659567569731735
460.4907987350016	1	restudy	nonviolation	5	B	73	scene	outdoor	1	0.6379964809748344
463.4907439099625	1	restudy	nonviolation	6	B	76	scene	outdoor	1	0.7570548100047745
466.4907001699903	1	restudy	violation	6	B	26	scene	outdoor	1	0.6490926690166816
469.49065966898337	1	restudy	nonviolation	6	B	73	scene	outdoor	n/a	n/a
472.4906205579755	1	learning	violation	4	A	31	scene	outdoor	1	0.6631673829979263
475.49057736695977	1	learning	violation	4	B	31	scene	indoor	n/a	n/a
478.490536043013	1	restudy	violation	5	B	28	scene	indoor	1	0.7842563570011407
481.49049292696867	1	learning	violation	4	A	32	scene	outdoor	1	0.6752970769884996
484.4904526859754	1	learning	violation	4	B	32	scene	indoor	1	0.6893469149945304
487.4904109640047	1	restudy	nonviolation	5	B	77	scene	outdoor	1	0.7433840959565714
490.49036830000114	1	restudy	nonviolation	6	B	75	scene	indoor	1	0.727424937998876
493.49033271800727	1	restudy	nonviolation	6	B	78	scene	indoor	1	0.6464643249637447
496.49028505297616	1	restudy	violation	6	B	27	scene	outdoor	1	0.7825169540010393
499.4902453109972	1	restudy	violation	5	B	29	scene	outdoor	n/a	n/a
502.4902036410058	1	restudy	nonviolation	5	B	79	scene	indoor	1	0.6075985039933585
505.4901706429664	1	restudy	nonviolation	6	B	77	scene	outdoor	1	0.5486215479904786
508.4901237110025	1	violation	violation	5	A	30	scene	indoor	1	0.5686776959919371
511.4900768100051	1	violation	violation	1	X	30	face	female	1	0.6807194649591111
514.490042430989	1	restudy	nonviolation	6	B	79	scene	indoor	1	0.5137526509934105
517.4899923829944	1	restudy	nonviolation	5	B	80	scene	indoor	1	0.7858121829922311
520.489951658994	1	violation	violation	5	A	31	scene	outdoor	0	0.5028493169811554
523.4899089059909	1	violation	violation	1	X	31	face	female	1	0.6248968929867261
526.4898676179582	1	violation	violation	5	A	32	scene	outdoor	1	0.6609337980044074
529.4898255299777	1	violation	violation	1	X	32	face	female	0	0.7749740129802376
532.4897838399628	1	restudy	violation	5	B	30	scene	indoor	1	0.6810128370416351
535.4897421550122	1	violation	violation	6	A	28	scene	indoor	1	0.6320610729744658
538.4897013049922	1	violation	violation	1	Y	28	face	female	1	0.6760957660153508
541.4729916739743	1	restudy	violation	5	B	32	scene	indoor	1	0.637808979023248
544.4729494510102	1	restudy	violation	5	B	31	scene	indoor	1	0.5958529449999332
547.4728969159769	1	restudy	nonviolation	6	B	80	scene	indoor	1	0.6499007419915871
550.4728549320134	1	violation	violation	6	A	32	scene	outdoor	1	0.6299468209617771
553.472814038978	1	violation	violation	1	Y	32	face	female	1	0.5979850260191597
556.4894449419808	1	restudy	violation	6	B	28	scene	indoor	1	1.0053446239908226
559.4727420989657	1	violation	violation	6	A	31	scene	outdoor	1	0.5750668820110151
562.472718450008	1	violation	violation	1	Y	31	face	female	1	0.5990820769802667
565.4726600889699	1	violation	violation	6	A	30	scene	indoor	1	0.7401411720202304
568.4726081129629	1	violation	violation	1	Y	30	face	female	1	0.6261571210343391
571.4725699169794	1	violation	violation	6	A	29	scene	outdoor	1	0.6712366690044291
574.4725274759694	1	violation	violation	1	Y	29	face	male	0	0.8342761510284618
577.4724909769719	1	restudy	violation	6	B	31	scene	indoor	1	0.6383147609885782
580.4724579129834	1	restudy	violation	6	B	30	scene	indoor	1	0.7943477589869872
583.4724411739735	1	restudy	violation	6	B	32	scene	indoor	1	0.8143639889894985
586.4723611329682	1	restudy	violation	6	B	29	scene	outdoor	1	1.0294453130336478
