onset	duration	trial_type	condition	repetition	pairmate	pairID	category	subcategory	response_accuracy	response_time
13.509007228072731	1	prelearning	nonviolation	1	B	87	scene	outdoor	1	1.018261466640979
16.508933586999778	1	prelearning	violation	1	A	36	scene	indoor	1	0.6753319757990539
19.50889451103285	1	prelearning	nonviolation	1	A	81	scene	outdoor	1	0.6373669407330453
22.5088522429578	1	prelearning	violation	1	A	37	scene	outdoor	1	0.5363406329415739
25.50882288394496	1	prelearning	nonviolation	1	A	82	scene	indoor	1	0.5984452688135207
28.508781722746786	1	prelearning	violation	1	B	35	scene	indoor	1	0.5004786499775946
31.50874390080571	1	prelearning	violation	1	B	33	scene	outdoor	1	0.5275217271409929
34.508694726973765	1	prelearning	violation	1	B	34	scene	indoor	1	0.7625761907547712
37.50866470206529	1	prelearning	nonviolation	1	A	86	scene	indoor	1	0.4775971458293498
40.508613487705595	1	prelearning	violation	1	B	40	scene	indoor	1	0.9346548020839692
43.50861594965681	1	prelearning	violation	1	B	37	scene	outdoor	1	0.570662067271769
46.50853585777804	1	prelearning	nonviolation	1	A	85	scene	outdoor	1	0.6447304701432586
49.50849569495767	1	prelearning	violation	1	A	33	scene	outdoor	1	0.6047745477408171
52.50845982180908	1	prelearning	nonviolation	1	B	88	scene	indoor	1	0.6677068411372602
55.50841652601957	1	prelearning	violation	1	A	34	scene	outdoor	1	0.4938470008783042
58.50837919162586	1	prelearning	nonviolation	1	B	85	scene	outdoor	1	0.5738899302668871
61.508335211779915	1	prelearning	violation	1	A	38	scene	indoor	0	0.4499344620853663
64.50829660985619	1	prelearning	violation	1	A	35	scene	outdoor	1	0.7219739528372884
67.5082594868727	1	prelearning	nonviolation	1	B	84	scene	outdoor	1	0.7710072081536055
70.50821638386697	1	prelearning	violation	1	B	36	scene	outdoor	1	0.586059738881886
73.50822040066123	1	prelearning	nonviolation	1	A	87	scene	indoor	1	0.5600568382069468
76.50814503198491	1	prelearning	violation	1	A	40	scene	indoor	1	0.5881257280707359
79.50809523183851	1	prelearning	violation	1	A	39	scene	indoor	1	0.5721816481091082
82.50805853493512	1	prelearning	nonviolation	1	B	83	scene	indoor	1	0.6042171907611191
85.50801433902234	1	prelearning	nonviolation	1	B	81	scene	indoor	1	0.5902542686089873
88.50798530271277	1	prelearning	nonviolation	1	A	88	scene	indoor	1	0.7262863959185779
91.50793469371273	1	prelearning	violation	1	B	38	scene	indoor	1	0.6713353171944618
94.50789576862007	1	prelearning	nonviolation	1	A	84	scene	outdoor	1	1.0253756162710488
97.50785607378928	1	prelearning	violation	1	B	39	scene	outdoor	1	0.7294183298945427
100.50782391568646	1	prelearning	nonviolation	1	A	83	scene	outdoor	1	1.072447769343853
103.50781901367009	1	prelearning	nonviolation	1	B	82	scene	indoor	1	0.7564609963446856
106.50774667691441	1	prelearning	nonviolation	1	B	86	scene	outdoor	1	0.5975274131633341
109.507694310043	1	learning	violation	2	A	33	scene	outdoor	1	0.3795766066759825
112.50767265306786	1	learning	violation	2	B	33	scene	outdoor	1	0.4255992127582431
115.50761783262716	1	learning	nonviolation	2	A	81	scene	outdoor	1	0.4836633363738656
118.50757589470594	1	learning	nonviolation	2	B	81	scene	indoor	1	0.5747043071314692
121.50755313271657	1	learning	nonviolation	2	A	82	scene	indoor	1	0.6127313929609954
124.50749369896948	1	learning	nonviolation	2	B	82	scene	indoor	1	0.54877915000543
127.50745351566002	1	learning	violation	2	A	34	scene	outdoor	1	0.6087746950797737
130.50741701107472	1	learning	violation	2	B	34	scene	indoor	1	0.607864623889327
133.50740184262395	1	learning	violation	2	A	35	scene	outdoor	1	0.5198782030493021
136.5073475120589	1	learning	violation	2	B	35	scene	indoor	1	0.5329266339540482
139.50730073684826	1	learning	nonviolation	2	A	83	scene	outdoor	1	0.62297602603212
142.50726418476552	1	learning	nonviolation	2	B	83	scene	indoor	1	0.7520172339864075
145.50721073383463	1	learning	violation	2	A	36	scene	indoor	1	0.6430679699406028
148.5071709509939	1	learning	violation	2	B	36	scene	outdoor	1	0.6211083009839058
151.50713104568422	1	learning	nonviolation	2	A	84	scene	outdoor	1	0.8451507301069796
154.50709246192127	1	learning	nonviolation	2	B	84	scene	outdoor	1	0.5051879617385566
157.50704998662698	1	learning	violation	2	A	37	scene	outdoor	1	0.5651042773388326
160.50700859399512	1	learning	violation	2	B	37	scene	outdoor	1	0.6282718176953495
163.50699098873883	1	learning	violation	2	A	38	scene	indoor	1	0.8762973891571164
166.50692923692986	1	learning	violation	2	B	38	scene	indoor	1	0.5843701027333736
169.50688610598445	1	learning	nonviolation	3	A	83	scene	outdoor	1	1.1053915726952257
172.50684790778905	1	learning	nonviolation	3	B	83	scene	indoor	1	0.6634337799623609
175.5068074790761	1	learning	nonviolation	3	A	82	scene	indoor	1	0.561476556584239
178.50676810462028	1	learning	nonviolation	3	B	82	scene	indoor	1	0.5625099982134998
181.50672549800944	1	learning	violation	3	A	35	scene	outdoor	1	0.6355599230155349
184.4900087090209	1	learning	violation	3	B	35	scene	indoor	1	0.7302761506289244
187.50664508575574	1	learning	violation	3	A	34	scene	outdoor	1	0.5096411211416125
190.50660887500268	1	learning	violation	3	B	34	scene	indoor	1	0.5606771698221564
193.5065947487019	1	learning	nonviolation	3	A	81	scene	outdoor	1	0.5566883170977235
196.48985448572785	1	learning	nonviolation	3	B	81	scene	indoor	1	0.5994360712356865
199.48982320493087	1	learning	nonviolation	4	A	82	scene	indoor	1	0.5334575800225139
202.4897768576629	1	learning	nonviolation	4	B	82	scene	indoor	1	0.5774426520802081
205.48973214393482	1	learning	nonviolation	2	A	85	scene	outdoor	1	0.4965507187880576
208.48969259904698	1	learning	nonviolation	2	B	85	scene	outdoor	1	0.413598095998168
211.48965007485825	1	learning	violation	2	A	39	scene	indoor	1	0.5616425550542772
214.48962086671963	1	learning	violation	2	B	39	scene	outdoor	1	0.4785426491871476
217.48957130173218	1	learning	violation	3	A	33	scene	outdoor	1	0.6087032658979297
220.48953188583252	1	learning	violation	3	B	33	scene	outdoor	1	0.7297554118558764
223.4894961710088	1	learning	nonviolation	2	A	86	scene	indoor	0	1.0127867837436495
226.4894706918858	1	learning	nonviolation	2	B	86	scene	outdoor	1	0.568821107968688
229.48941666167232	1	learning	violation	3	A	38	scene	indoor	1	0.8618740560486913
232.48936977097762	1	learning	violation	3	B	38	scene	indoor	1	0.8249234319664538
235.48933840263638	1	learning	violation	3	A	36	scene	indoor	1	0.6549513624049723
238.48929490102452	1	learning	violation	3	B	36	scene	outdoor	1	0.9449942568317056
241.48928000777957	1	learning	violation	3	A	37	scene	outdoor	1	0.6520112981088461
244.4892082028091	1	learning	violation	3	B	37	scene	outdoor	n/a	n/a
247.48917283397168	1	learning	nonviolation	3	A	84	scene	outdoor	1	0.7611213638447225
250.4891288038343	1	learning	nonviolation	3	B	84	scene	outdoor	1	0.4781607328914106
253.48908875277263	1	learning	violation	2	A	40	scene	indoor	0	1.1782056340016425
256.48905774997553	1	learning	violation	2	B	40	scene	indoor	1	0.92523907776922
259.489012776874	1	learning	violation	4	A	37	scene	outdoor	1	0.4802845767699182
262.4889646288939	1	learning	violation	4	B	37	scene	outdoor	1	0.4933317489922047
265.4889235990122	1	learning	nonviolation	4	A	81	scene	outdoor	1	0.5183696397580206
268.48891113186255	1	learning	nonviolation	4	B	81	scene	indoor	0	0.5943880658596754
271.4888424016535	1	learning	nonviolation	3	A	86	scene	indoor	1	0.972446507308632
274.48880483489484	1	learning	nonviolation	3	B	86	scene	outdoor	1	0.5564923570491374
277.48876147391275	1	learning	violation	4	A	34	scene	outdoor	1	0.5285347420722246
280.48873671377083	1	learning	violation	4	B	34	scene	indoor	1	0.6375628840178251
283.48868153290823	1	learning	violation	4	A	35	scene	outdoor	1	0.5986173567362131
286.488642858807	1	learning	violation	4	B	35	scene	indoor	1	0.7675293260253966
289.4885997730307	1	learning	violation	4	A	33	scene	outdoor	1	0.6506967237219214
292.4885716647841	1	learning	violation	4	B	33	scene	outdoor	1	0.6297219968400896
295.48853375483304	1	learning	nonviolation	4	A	83	scene	outdoor	1	0.9427679618820548
298.4884748547338	1	learning	nonviolation	4	B	83	scene	indoor	1	0.6338019240647554
301.48843490891164	1	violation	violation	5	A	37	scene	outdoor	1	0.9528669249266386
304.48839855985716	1	violation	violation	1	X	37	face	male	1	1.0759011791087687
307.4883603537455	1	restudy	nonviolation	5	B	81	scene	indoor	1	1.009936921298504
310.4883479760028	1	restudy	nonviolation	5	B	82	scene	indoor	1	0.8549508037976921
313.48828173195943	1	learning	nonviolation	3	A	85	scene	outdoor	1	0.5860234717838466
316.4882373958826	1	learning	nonviolation	3	B	85	scene	outdoor	0	1.0040557920001447
319.4882032168098	1	learning	violation	3	A	39	scene	indoor	1	0.6470945361070335
322.48818083107466	1	learning	violation	3	B	39	scene	outdoor	1	0.7151539968326688
325.4881126950495	1	learning	violation	4	A	38	scene	indoor	0	0.1581924338825047
328.488079235889	1	learning	violation	4	B	38	scene	indoor	1	0.6812264029867947
331.4880348569713	1	learning	violation	4	A	36	scene	indoor	1	0.6452629677951336
334.48799171904096	1	learning	violation	4	B	36	scene	outdoor	1	0.7583131846040487
337.4879506709985	1	violation	violation	5	A	35	scene	outdoor	1	0.5763492817059159
340.48790898872534	1	violation	violation	1	X	35	face	female	1	0.7243971773423254
343.48787369998166	1	learning	nonviolation	4	A	86	scene	indoor	1	0.7624295540153979
346.48783310782164	1	learning	nonviolation	4	B	86	scene	outdoor	1	0.7264758120290935
349.48778754100204	1	learning	nonviolation	4	A	84	scene	outdoor	n/a	n/a
352.4877571417019	1	learning	nonviolation	4	B	84	scene	outdoor	1	0.5325609683059156
355.48770553991204	1	learning	violation	3	A	40	scene	indoor	1	0.6696003121323884
358.48766459804034	1	learning	violation	3	B	40	scene	indoor	1	0.5176436780020595
361.4876251509413	1	restudy	violation	5	B	37	scene	outdoor	1	0.5606803889386356
364.48758582677686	1	violation	violation	5	A	34	scene	outdoor	1	0.5197250712662935
367.4875431926921	1	violation	violation	1	X	34	face	female	1	0.630767161026597
370.48750534281135	1	restudy	nonviolation	5	B	83	scene	indoor	1	0.7027411982417107
373.48746298067266	1	violation	violation	5	A	33	scene	outdoor	1	0.81687145633623
376.48742008069536	1	violation	violation	1	X	33	face	male	0	0.5568859390914439
379.48738548392436	1	restudy	nonviolation	6	B	81	scene	indoor	1	0.5669272439554334
382.4873520578258	1	restudy	nonviolation	6	B	82	scene	indoor	1	0.5679586431942879
385.48730322998017	1	restudy	nonviolation	5	B	86	scene	outdoor	1	0.7280062260106206
388.4872589916922	1	learning	nonviolation	2	A	87	scene	indoor	1	0.8990515363402665
391.48721746494994	1	learning	nonviolation	2	B	87	scene	outdoor	1	0.940094731748104
394.48717514565215	1	learning	violation	4	A	39	scene	indoor	1	0.7291596052236855
397.4871446350589	1	learning	violation	4	B	39	scene	outdoor	0	0.8741656569764018
400.48709490196785	1	violation	violation	5	A	38	scene	indoor	1	0.6602179310284555
403.48705454077566	1	violation	violation	1	X	38	face	female	n/a	n/a
406.4870168189518	1	learning	nonviolation	4	A	85	scene	outdoor	1	0.5492979218252003
409.48697307892144	1	learning	nonviolation	4	B	85	scene	outdoor	1	0.4533422151580453
412.48693099571386	1	restudy	violation	5	B	35	scene	indoor	n/a	n/a
415.48689799802384	1	restudy	violation	5	B	38	scene	indoor	1	0.6544206868857145
418.4868519469164	1	restudy	violation	5	B	33	scene	outdoor	1	0.6534588900394738
421.48680960107595	1	learning	violation	4	A	40	scene	indoor	1	0.6825040788389742
424.4867701167241	1	learning	violation	4	B	40	scene	indoor	1	0.5755465910769999
427.48673358792433	1	restudy	nonviolation	5	B	84	scene	outdoor	1	0.6515827178955078
430.4866977399215	1	violation	violation	5	A	36	scene	indoor	1	0.5956168868578969
433.4866476817988	1	violation	violation	1	X	36	face	male	1	0.8846689709462225
436.4866147870198	1	violation	violation	5	A	40	scene	indoor	1	0.7587277740240097
439.4865659219213	1	violation	violation	1	X	40	face	female	1	0.8957518320530653
442.4865384427831	1	restudy	nonviolation	6	B	83	scene	indoor	1	0.5907738599926233
445.48649170296267	1	violation	violation	6	A	33	scene	outdoor	1	0.5688273967243731
448.4864438078366	1	violation	violation	1	Y	33	face	male	1	0.5608744649216533
451.4864034107886	1	restudy	violation	5	B	34	scene	indoor	0	0.6089142961427569
454.4863639366813	1	violation	violation	6	A	37	scene	outdoor	1	0.6219544801861048
457.4863211247138	1	violation	violation	1	Y	37	face	male	1	0.7789965542033315
460.48628030996764	1	restudy	nonviolation	6	B	84	scene	outdoor	1	0.577039638068527
463.48623930383474	1	restudy	violation	5	B	40	scene	indoor	1	0.6880803820677102
466.48620279179886	1	violation	violation	6	A	38	scene	indoor	n/a	n/a
469.4861603160389	1	violation	violation	1	Y	38	face	female	1	0.6321614747866988
472.4861158467828	1	restudy	nonviolation	6	B	86	scene	outdoor	1	0.6512044258415699
475.48609086405486	1	violation	violation	6	A	40	scene	indoor	1	1.1022322508506477
478.4860432320274	1	violation	violation	1	Y	40	face	female	1	0.7652758988551795
481.48599713575095	1	learning	nonviolation	3	A	87	scene	indoor	0	0.019326703157275915
484.4859560579062	1	learning	nonviolation	3	B	87	scene	outdoor	1	1.01329914201051
487.48591462103656	1	violation	violation	5	A	39	scene	indoor	1	0.6504060747101903
490.4858775427565	1	violation	violation	1	X	39	face	male	1	0.9584577279165388
493.4858371387236	1	restudy	nonviolation	5	B	85	scene	outdoor	1	0.6864898460917175
496.48579050973063	1	restudy	violation	5	B	36	scene	outdoor	1	0.5605332911945881
499.4857607050799	1	violation	violation	6	A	35	scene	outdoor	1	0.6575632118619978
502.4857096117921	1	violation	violation	1	Y	35	face	female	1	0.6766245858743787
505.48567158402875	1	restudy	violation	5	B	39	scene	outdoor	1	0.601655812934041
508.4856327059679	1	learning	nonviolation	2	A	88	scene	indoor	0	0.6976949390955269
511.485588229727	1	learning	nonviolation	2	B	88	scene	indoor	1	0.6026239120401442
514.4855583948083	1	restudy	violation	6	B	37	scene	outdoor	1	0.5487697832286358
517.4855075418018	1	learning	nonviolation	4	A	87	scene	indoor	0	1.006818486843258
520.4854657896794	1	learning	nonviolation	4	B	87	scene	outdoor	1	0.8628639183007181
523.4854261879809	1	restudy	violation	6	B	33	scene	outdoor	1	0.7339034108445048
526.4853918636218	1	violation	violation	6	A	34	scene	outdoor	1	0.3889317740686238
529.4853452118114	1	violation	violation	1	Y	34	face	female	1	0.7649793149903417
532.4853100837208	1	restudy	nonviolation	6	B	85	scene	outdoor	1	0.9788989461958408
535.4852640097962	1	violation	violation	6	A	36	scene	indoor	1	0.6790583240799606
538.4852288067342	1	violation	violation	1	Y	36	face	male	1	0.7610971089452505
541.4851903598757	1	learning	nonviolation	3	A	88	scene	indoor	n/a	n/a
544.4851406780072	1	learning	nonviolation	3	B	88	scene	indoor	1	0.6401593568734825
547.4851011666469	1	restudy	violation	6	B	34	scene	indoor	1	0.6872349879704416
550.4850602238438	1	restudy	violation	6	B	38	scene	indoor	n/a	n/a
553.4850348168983	1	restudy	nonviolation	5	B	87	scene	outdoor	1	0.6352994590997696
556.4849770879373	1	restudy	violation	6	B	36	scene	outdoor	n/a	n/a
559.4849362326786	1	learning	nonviolation	4	A	88	scene	indoor	1	0.8043941343203187
562.4848963199183	1	learning	nonviolation	4	B	88	scene	indoor	1	0.6113152457401156
565.4848607149906	1	restudy	violation	6	B	40	scene	indoor	1	0.4964700350537896
568.4848154336214	1	violation	violation	6	A	39	scene	indoor	1	0.9805213161744176
571.4847770277411	1	violation	violation	1	Y	39	face	male	0	1.4345565498806536
574.4847342376597	1	restudy	nonviolation	6	B	87	scene	outdoor	1	0.6496042273938656
577.4846925227902	1	restudy	nonviolation	5	B	88	scene	indoor	1	1.4046455970965326
580.4846508437768	1	restudy	violation	6	B	39	scene	outdoor	1	0.5896889101713896
583.4846181990579	1	restudy	violation	6	B	35	scene	indoor	1	0.6237200307659805
586.4845721260643	1	restudy	nonviolation	6	B	88	scene	indoor	1	0.6517047677189112
