onset	duration	trial_type	reward_condition	condition	repetition	pairmate	pairID	response_accuracy	response_time
13.507815615972508	2.5	scene	neutral	nonviolation	1	A	76	1	1.4353195910225622
16.007815615972508	3.0	feedback	n/a	n/a	n/a	n/a	n/a	n/a	n/a
19.506537675973963	2.5	scene	reward	violation	1	A	34	0	1.2136009150126483
22.00653767597396	3.0	feedback	n/a	n/a	n/a	n/a	n/a	n/a	n/a
25.506052245997125	2.5	scene	neutral	violation	1	A	41	1	1.1200861629913559
28.006052245997125	3.0	feedback	n/a	n/a	n/a	n/a	n/a	n/a	n/a
31.50557505499455	2.5	scene	neutral	nonviolation	1	A	57	1	0.9935597769799642
34.00557505499455	3.0	feedback	n/a	n/a	n/a	n/a	n/a	n/a	n/a
37.505878903990386	2.5	scene	neutral	nonviolation	1	A	67	1	0.9352712499967312
40.005878903990386	3.0	feedback	n/a	n/a	n/a	n/a	n/a	n/a	n/a
43.50474014598876	2.5	scene	neutral	violation	1	A	16	1	0.8703459189855494
46.00474014598876	3.0	feedback	n/a	n/a	n/a	n/a	n/a	n/a	n/a
49.50466793699889	2.5	scene	neutral	violation	1	A	17	1	0.9444939459790476
52.00466793699889	3.0	feedback	n/a	n/a	n/a	n/a	n/a	n/a	n/a
55.50467726399074	2.5	scene	neutral	nonviolation	1	A	49	0	0.970460020005703
58.00467726399074	3.0	feedback	n/a	n/a	n/a	n/a	n/a	n/a	n/a
61.50451263698051	2.5	scene	reward	nonviolation	1	A	72	0	1.1166252699913457
64.00451263698051	3.0	feedback	n/a	n/a	n/a	n/a	n/a	n/a	n/a
67.50443063597777	2.5	scene	neutral	nonviolation	1	A	94	1	1.184713388007367
70.00443063597777	3.0	feedback	n/a	n/a	n/a	n/a	n/a	n/a	n/a
73.50434594799299	2.5	scene	neutral	violation	1	A	4	1	0.9277957640006208
76.00434594799299	3.0	feedback	n/a	n/a	n/a	n/a	n/a	n/a	n/a
79.50426723598503	2.5	scene	reward	violation	1	A	43	1	0.7948829820088577
82.00426723598503	3.0	feedback	n/a	n/a	n/a	n/a	n/a	n/a	n/a
85.50419821197283	2.5	scene	neutral	violation	1	A	11	1	1.2939500090142246
88.00419821197283	3.0	feedback	n/a	n/a	n/a	n/a	n/a	n/a	n/a
91.5041111939936	2.5	scene	reward	nonviolation	1	A	85	1	0.8430343939980958
94.0041111939936	3.0	feedback	n/a	n/a	n/a	n/a	n/a	n/a	n/a
97.50403202499727	2.5	scene	reward	violation	1	A	48	0	0.9991143059742172
100.00403202499727	3.0	feedback	n/a	n/a	n/a	n/a	n/a	n/a	n/a
103.50396073597948	2.5	scene	neutral	violation	1	A	3	1	0.9611893130058888
106.00396073597948	3.0	feedback	n/a	n/a	n/a	n/a	n/a	n/a	n/a
109.50387599799431	2.5	scene	reward	nonviolation	1	A	58	0	1.461271690990543
112.00387599799431	3.0	feedback	n/a	n/a	n/a	n/a	n/a	n/a	n/a
115.50380454098922	2.5	scene	neutral	violation	1	A	31	1	1.105341905989917
118.00380454098922	3.0	feedback	n/a	n/a	n/a	n/a	n/a	n/a	n/a
121.50371909697424	2.5	scene	reward	violation	1	A	25	0	0.9784305170178412
124.00371909697424	3.0	feedback	n/a	n/a	n/a	n/a	n/a	n/a	n/a
127.50364632898709	2.5	scene	reward	violation	1	A	10	0	0.8465050010127015
130.00364632898712	3.0	feedback	n/a	n/a	n/a	n/a	n/a	n/a	n/a
133.50357599198472	2.5	scene	reward	violation	1	A	9	1	0.7435051210050005
136.00357599198472	3.0	feedback	n/a	n/a	n/a	n/a	n/a	n/a	n/a
139.5034923319763	2.5	scene	neutral	nonviolation	1	A	64	1	0.7906616920081433
142.00349233197633	3.0	feedback	n/a	n/a	n/a	n/a	n/a	n/a	n/a
145.50340425097966	2.5	scene	neutral	nonviolation	1	A	84	1	0.7406750929949341
148.00340425097966	3.0	feedback	n/a	n/a	n/a	n/a	n/a	n/a	n/a
151.50332478198106	2.5	scene	reward	nonviolation	1	A	55	1	0.8478349480137695
154.00332478198106	3.0	feedback	n/a	n/a	n/a	n/a	n/a	n/a	n/a
157.50325393097592	2.5	scene	neutral	nonviolation	1	A	56	1	1.0158972229983192
160.00325393097592	3.0	feedback	n/a	n/a	n/a	n/a	n/a	n/a	n/a
163.5031690079777	2.5	scene	reward	nonviolation	1	A	87	1	1.4909860000188928
166.0031690079777	3.0	feedback	n/a	n/a	n/a	n/a	n/a	n/a	n/a
169.50308908199077	2.5	scene	reward	violation	1	A	22	1	0.7170665570010897
172.00308908199074	3.0	feedback	n/a	n/a	n/a	n/a	n/a	n/a	n/a
175.50300825899467	2.5	scene	neutral	violation	1	A	47	1	1.2021467949962243
178.00300825899467	3.0	feedback	n/a	n/a	n/a	n/a	n/a	n/a	n/a
181.50293308799155	2.5	scene	reward	nonviolation	1	A	63	0	0.7822411530069076
184.00293308799155	3.0	feedback	n/a	n/a	n/a	n/a	n/a	n/a	n/a
187.50285291898763	2.5	scene	neutral	violation	1	A	20	1	0.8413081940088887
190.00285291898763	3.0	feedback	n/a	n/a	n/a	n/a	n/a	n/a	n/a
193.50277490797455	2.5	scene	neutral	nonviolation	1	A	69	1	0.8343799980066251
196.00277490797455	3.0	feedback	n/a	n/a	n/a	n/a	n/a	n/a	n/a
199.5026942909753	2.5	scene	reward	violation	1	A	29	1	0.7454654210014269
202.0026942909753	3.0	feedback	n/a	n/a	n/a	n/a	n/a	n/a	n/a
205.50262449297588	2.5	scene	reward	violation	1	A	24	1	1.3665401850012129
208.00262449297588	3.0	feedback	n/a	n/a	n/a	n/a	n/a	n/a	n/a
211.502543937997	2.5	scene	reward	violation	1	A	1	0	0.9536182890005876
214.002543937997	3.0	feedback	n/a	n/a	n/a	n/a	n/a	n/a	n/a
217.50245791999626	2.5	scene	reward	nonviolation	1	A	90	1	0.9877095979754812
220.00245791999626	3.0	feedback	n/a	n/a	n/a	n/a	n/a	n/a	n/a
223.50238005199932	2.5	scene	reward	violation	1	A	37	0	1.167783551994944
226.00238005199932	3.0	feedback	n/a	n/a	n/a	n/a	n/a	n/a	n/a
229.50230041699248	2.5	scene	reward	nonviolation	1	A	91	1	0.8368689639901277
232.00230041699248	3.0	feedback	n/a	n/a	n/a	n/a	n/a	n/a	n/a
235.50221686498844	2.5	scene	reward	nonviolation	1	A	68	1	1.0379497710091528
238.00221686498844	3.0	feedback	n/a	n/a	n/a	n/a	n/a	n/a	n/a
241.502143093996	2.5	scene	neutral	nonviolation	1	A	89	1	1.0720325939764734
244.002143093996	3.0	feedback	n/a	n/a	n/a	n/a	n/a	n/a	n/a
247.50206413399428	2.5	scene	reward	nonviolation	1	A	73	1	0.8401018119766377
250.00206413399428	3.0	feedback	n/a	n/a	n/a	n/a	n/a	n/a	n/a
253.5019951829745	2.5	scene	reward	nonviolation	1	A	52	0	0.847172802023124
256.0019951829745	3.0	feedback	n/a	n/a	n/a	n/a	n/a	n/a	n/a
259.48523699099314	2.5	scene	neutral	nonviolation	1	A	82	1	0.9989346579823176
261.98523699099314	3.0	feedback	n/a	n/a	n/a	n/a	n/a	n/a	n/a
265.50182874998427	2.5	scene	neutral	violation	1	A	26	1	0.8023368490103167
268.00182874998427	3.0	feedback	n/a	n/a	n/a	n/a	n/a	n/a	n/a
271.50174983398756	2.5	scene	neutral	nonviolation	1	A	80	1	0.7934401649981737
274.00174983398756	3.0	feedback	n/a	n/a	n/a	n/a	n/a	n/a	n/a
277.485005427996	2.5	scene	reward	nonviolation	1	A	78	1	0.6951615619764198
279.985005427996	3.0	feedback	n/a	n/a	n/a	n/a	n/a	n/a	n/a
283.48492782298126	2.5	scene	neutral	violation	1	A	35	1	0.9672438580018934
285.98492782298126	3.0	feedback	n/a	n/a	n/a	n/a	n/a	n/a	n/a
289.48485161399003	2.5	scene	neutral	violation	1	A	36	1	0.8213211219990626
291.98485161399003	3.0	feedback	n/a	n/a	n/a	n/a	n/a	n/a	n/a
295.4847707109875	2.5	scene	reward	violation	1	A	5	1	0.8234036960056983
297.9847707109875	3.0	feedback	n/a	n/a	n/a	n/a	n/a	n/a	n/a
301.4846917379764	2.5	scene	neutral	violation	2	A	41	1	1.4584839900198858
303.9846917379764	3.0	feedback	n/a	n/a	n/a	n/a	n/a	n/a	n/a
307.4846094439854	2.5	scene	neutral	nonviolation	2	A	76	1	1.0295665530138651
309.9846094439854	3.0	feedback	n/a	n/a	n/a	n/a	n/a	n/a	n/a
313.48453351299395	2.5	scene	reward	violation	2	A	22	1	0.6526437809807248
315.98453351299395	3.0	feedback	n/a	n/a	n/a	n/a	n/a	n/a	n/a
319.4844537729805	2.5	scene	reward	violation	2	A	34	1	0.5947217550128698
321.9844537729805	3.0	feedback	n/a	n/a	n/a	n/a	n/a	n/a	n/a
325.48437369897147	2.5	scene	neutral	violation	2	A	47	1	0.8428044120082632
327.98437369897147	3.0	feedback	n/a	n/a	n/a	n/a	n/a	n/a	n/a
331.4842863269733	2.5	scene	neutral	violation	2	A	17	0	0.8438903770002071
333.9842863269733	3.0	feedback	n/a	n/a	n/a	n/a	n/a	n/a	n/a
337.484229388996	2.5	scene	neutral	nonviolation	2	A	64	1	0.8859537999960594
339.984229388996	3.0	feedback	n/a	n/a	n/a	n/a	n/a	n/a	n/a
343.48413682199316	2.5	scene	reward	violation	2	A	10	1	0.7010416369885206
345.98413682199316	3.0	feedback	n/a	n/a	n/a	n/a	n/a	n/a	n/a
349.4840626859805	2.5	scene	neutral	violation	2	A	4	1	0.7921164380095433
351.9840626859805	3.0	feedback	n/a	n/a	n/a	n/a	n/a	n/a	n/a
355.4839793189894	2.5	scene	neutral	nonviolation	2	A	94	1	0.8602017909870483
357.9839793189894	3.0	feedback	n/a	n/a	n/a	n/a	n/a	n/a	n/a
361.4839011449949	2.5	scene	reward	violation	2	A	25	1	0.7842995190003421
363.9839011449949	3.0	feedback	n/a	n/a	n/a	n/a	n/a	n/a	n/a
367.4883456959797	2.5	scene	neutral	nonviolation	2	A	49	1	0.7488367420155555
369.9883456959797	3.0	feedback	n/a	n/a	n/a	n/a	n/a	n/a	n/a
373.48792451497866	2.5	scene	reward	nonviolation	2	A	90	1	0.9402564690099098
375.98792451497866	3.0	feedback	n/a	n/a	n/a	n/a	n/a	n/a	n/a
379.48744976197486	2.5	scene	neutral	violation	2	A	3	1	0.6217331800144166
381.98744976197486	3.0	feedback	n/a	n/a	n/a	n/a	n/a	n/a	n/a
385.4870305129734	2.5	scene	reward	nonviolation	2	A	72	1	0.8451566750009079
387.9870305129734	3.0	feedback	n/a	n/a	n/a	n/a	n/a	n/a	n/a
391.487817301997	2.5	scene	reward	violation	2	A	1	1	0.9483632859773934
393.987817301997	3.0	feedback	n/a	n/a	n/a	n/a	n/a	n/a	n/a
397.4863032929716	2.5	scene	neutral	violation	2	A	20	1	0.7749014430155512
399.9863032929716	3.0	feedback	n/a	n/a	n/a	n/a	n/a	n/a	n/a
403.48687208897906	2.5	scene	neutral	nonviolation	2	A	57	1	0.8533160969964229
405.98687208897906	3.0	feedback	n/a	n/a	n/a	n/a	n/a	n/a	n/a
409.486389822996	2.5	scene	neutral	nonviolation	2	A	80	1	0.6127056569966953
411.986389822996	3.0	feedback	n/a	n/a	n/a	n/a	n/a	n/a	n/a
415.4849173349794	2.5	scene	reward	nonviolation	2	A	73	1	0.8562806330155581
417.9849173349794	3.0	feedback	n/a	n/a	n/a	n/a	n/a	n/a	n/a
421.4852142289746	2.5	scene	reward	nonviolation	2	A	91	1	0.7249703110137489
423.9852142289746	3.0	feedback	n/a	n/a	n/a	n/a	n/a	n/a	n/a
427.4857851879788	2.5	scene	neutral	nonviolation	2	A	84	1	0.6754232360108289
429.9857851879788	3.0	feedback	n/a	n/a	n/a	n/a	n/a	n/a	n/a
433.4843695879972	2.5	scene	neutral	nonviolation	2	A	67	1	0.6298686149821151
435.9843695879972	3.0	feedback	n/a	n/a	n/a	n/a	n/a	n/a	n/a
439.48416963999625	2.5	scene	neutral	violation	2	A	11	1	0.8310198980034329
441.98416963999625	3.0	feedback	n/a	n/a	n/a	n/a	n/a	n/a	n/a
445.48468883999163	2.5	scene	reward	violation	2	A	5	1	0.7645034829911309
447.98468883999163	3.0	feedback	n/a	n/a	n/a	n/a	n/a	n/a	n/a
451.48272601398634	2.5	scene	reward	violation	2	A	37	0	0.9484640790033154
453.98272601398634	3.0	feedback	n/a	n/a	n/a	n/a	n/a	n/a	n/a
457.48311083798757	2.5	scene	neutral	violation	2	A	31	1	1.3180833380029071
459.98311083798757	3.0	feedback	n/a	n/a	n/a	n/a	n/a	n/a	n/a
463.4836258649884	2.5	scene	neutral	nonviolation	2	A	89	1	0.7325622139906045
465.9836258649884	3.0	feedback	n/a	n/a	n/a	n/a	n/a	n/a	n/a
469.48414118998335	2.5	scene	neutral	violation	2	A	35	0	1.1750500180060044
471.98414118998335	3.0	feedback	n/a	n/a	n/a	n/a	n/a	n/a	n/a
475.4824046399736	2.5	scene	reward	nonviolation	2	A	68	1	0.9727898320124949
477.9824046399736	3.0	feedback	n/a	n/a	n/a	n/a	n/a	n/a	n/a
481.482751249976	2.5	scene	reward	nonviolation	2	A	58	1	0.8544441470003221
483.982751249976	3.0	feedback	n/a	n/a	n/a	n/a	n/a	n/a	n/a
487.48255406098906	2.5	scene	reward	nonviolation	2	A	85	1	0.6906507579842582
489.98255406098906	3.0	feedback	n/a	n/a	n/a	n/a	n/a	n/a	n/a
493.4821737449965	2.5	scene	reward	violation	2	A	29	1	0.8610250600031577
495.9821737449965	3.0	feedback	n/a	n/a	n/a	n/a	n/a	n/a	n/a
499.48209876098565	2.5	scene	reward	violation	2	A	48	1	0.8690977350051979
501.98209876098565	3.0	feedback	n/a	n/a	n/a	n/a	n/a	n/a	n/a
505.48239713898516	2.5	scene	reward	violation	2	A	9	1	0.6037992450001184
507.98239713898516	3.0	feedback	n/a	n/a	n/a	n/a	n/a	n/a	n/a
511.48193260899285	2.5	scene	neutral	nonviolation	2	A	82	1	0.6742646250058897
513.9819326089928	3.0	feedback	n/a	n/a	n/a	n/a	n/a	n/a	n/a
517.4818572269869	2.5	scene	neutral	nonviolation	2	A	69	1	0.6403387759928592
519.9818572269869	3.0	feedback	n/a	n/a	n/a	n/a	n/a	n/a	n/a
523.4817760189762	2.5	scene	neutral	violation	2	A	16	1	0.8454316669958644
525.9817760189762	3.0	feedback	n/a	n/a	n/a	n/a	n/a	n/a	n/a
529.4817070979916	2.5	scene	reward	nonviolation	2	A	87	1	0.7165507029858418
531.9817070979916	3.0	feedback	n/a	n/a	n/a	n/a	n/a	n/a	n/a
535.4816201669746	2.5	scene	neutral	violation	2	A	26	1	0.6315837610163726
537.9816201669746	3.0	feedback	n/a	n/a	n/a	n/a	n/a	n/a	n/a
541.4815491009796	2.5	scene	reward	nonviolation	2	A	55	0	0.7806739940133411
543.9815491009796	3.0	feedback	n/a	n/a	n/a	n/a	n/a	n/a	n/a
547.4814709119964	2.5	scene	reward	nonviolation	2	A	78	1	0.6407298289996106
549.9814709119964	3.0	feedback	n/a	n/a	n/a	n/a	n/a	n/a	n/a
553.4813858109992	2.5	scene	neutral	nonviolation	2	A	56	1	0.7388218509731814
555.9813858109992	3.0	feedback	n/a	n/a	n/a	n/a	n/a	n/a	n/a
559.4813056119892	2.5	scene	reward	nonviolation	2	A	63	1	1.200901670003077
561.9813056119892	3.0	feedback	n/a	n/a	n/a	n/a	n/a	n/a	n/a
565.4812271379924	2.5	scene	reward	violation	2	A	43	1	0.8779776550072711
567.9812271379924	3.0	feedback	n/a	n/a	n/a	n/a	n/a	n/a	n/a
571.4811482849764	2.5	scene	neutral	violation	2	A	36	1	0.7189903070102446
573.9811482849764	3.0	feedback	n/a	n/a	n/a	n/a	n/a	n/a	n/a
577.481070283975	2.5	scene	reward	violation	2	A	24	0	1.3151345970109105
579.981070283975	3.0	feedback	n/a	n/a	n/a	n/a	n/a	n/a	n/a
583.4809939919796	2.5	scene	reward	nonviolation	2	A	52	1	0.9332202390069142
585.9809939919796	3.0	feedback	n/a	n/a	n/a	n/a	n/a	n/a	n/a
