onset	duration	trial_type	condition	response_accuracy	response_time
13.506536271888766	2.5	A	violation	0	0.8805324900895357
16.506491852924228	2.5	B	violation	0	1.5335733969695866
19.506457448937	2.5	B	violation	1	1.0666353390552104
22.506407444830984	2.5	B	violation	0	1.1866563721559942
25.50637873401865	2.5	A	nonviolation	1	1.2356907837092876
28.506332690827552	2.5	B	nonviolation	0	1.352742773015052
31.50629185885191	2.5	A	nonviolation	1	0.835773432161659
34.50625246204436	2.5	A	violation	1	0.9108108975924551
37.506220629904426	2.5	B	violation	0	0.928850941825658
40.50617327075452	2.5	A	violation	1	0.903893711976707
43.50612891186029	2.5	B	violation	0	0.9869415909051896
46.50609626201913	2.5	B	violation	0	0.8819787376560271
49.50606116699055	2.5	A	nonviolation	1	0.7260050266049802
52.506013480015106	2.5	A	violation	1	0.8110574670135975
55.50597981968895	2.5	A	nonviolation	1	1.0760955521836877
58.50594013975933	2.5	B	violation	0	1.0021286448463798
61.50589510193095	2.5	A	nonviolation	1	1.0481786229647696
64.50585498195142	2.5	B	nonviolation	1	0.7752180667594075
67.50581353995949	2.5	B	nonviolation	1	0.766261818818748
70.50578021397814	2.5	B	violation	0	0.7412751759402454
73.50574075989425	2.5	A	violation	1	0.7353356201201677
76.50569605175407	2.5	A	violation	1	0.7283807899802923
79.50565356062725	2.5	B	nonviolation	0	0.8834219030104578
82.5056144297123	2.5	B	nonviolation	1	0.9934576018713416
85.50557214394213	2.5	B	nonviolation	1	1.0275060506537557
88.50553889991717	2.5	B	nonviolation	1	1.403544630855322
91.50548781501128	2.5	B	violation	0	1.074590299744159
94.50545141799377	2.5	A	nonviolation	1	0.7876183427870274
97.50541783869268	2.5	B	violation	0	0.9016616852022707
100.50537821184842	2.5	B	violation	1	1.1676986310631037
103.50533269299194	2.5	B	violation	0	0.9097196138463914
106.5052968179807	2.5	A	violation	1	1.0627940548583863
109.50525142904371	2.5	A	nonviolation	1	0.9928277228027582
112.50520998192951	2.5	B	nonviolation	0	0.9168686708435416
115.50517310900614	2.5	A	violation	1	1.0109035237692297
118.50513523863629	2.5	A	nonviolation	1	1.1299402322620151
121.50509676802905	2.5	A	nonviolation	1	0.7379809129051864
124.50504728080703	2.5	B	nonviolation	1	1.2810328658670187
127.50500516965984	2.5	B	nonviolation	0	1.332073267083615
130.50496706180272	2.5	B	nonviolation	0	1.1851178840734065
133.50493132462722	2.5	A	nonviolation	1	1.0531501532532277
136.50488570798188	2.5	B	nonviolation	0	1.1412081648595631
139.50484642200172	2.5	A	violation	1	0.9642315367236732
142.50480388198048	2.5	A	nonviolation	1	0.6732832286506891
145.50477083167058	2.5	A	nonviolation	1	0.7153095062822104
148.5047292020172	2.5	A	violation	1	0.6523529766127467
151.50468257768082	2.5	A	violation	1	0.7384201250970364
154.50464303372428	2.5	A	violation	1	0.7034455859102309
157.50460323365402	2.5	B	nonviolation	1	0.8494773800484836
160.5045622377656	2.5	B	nonviolation	1	0.5745189441367984
163.50452489871532	2.5	A	nonviolation	1	0.859558483120054
166.50447799172252	2.5	B	nonviolation	1	1.0386067652143538
169.50444021867588	2.5	A	violation	1	0.7686423379927874
172.50440471479666	2.5	B	nonviolation	0	0.8096762290224433
175.5043553588912	2.5	A	violation	1	0.7387341717258096
178.5043226117268	2.5	B	nonviolation	0	0.957768035121262
181.50427996972576	2.5	B	violation	0	1.2768031121231616
184.50423133466396	2.5	B	violation	0	1.2718528029508889
187.50419247476384	2.5	A	violation	1	1.2628935142420232
190.504154403694	2.5	B	violation	0	1.0379388979636133
193.50411365972832	2.5	B	violation	1	0.8239724421873689
196.50407389691102	2.5	A	nonviolation	1	0.6340168309397995
199.50402977876362	2.5	A	nonviolation	1	0.7250916948541999
202.5039883069694	2.5	A	violation	1	0.7240941636264324
205.50395068759101	2.5	A	nonviolation	0	0.9201527033001184
208.50390914082527	2.5	A	nonviolation	1	0.7321895398199558
211.50387461902574	2.5	A	violation	1	0.5952120237052441
214.5038353209384	2.5	A	violation	1	0.9252591440454124
217.5037886230275	2.5	B	violation	0	1.2563030929304657
220.50374224176633	2.5	B	nonviolation	1	1.1103496039286256
223.50370389595628	2.5	B	violation	0	0.9603839847259223
226.4869873356074	2.5	B	violation	1	0.8331128479912877
229.50362325599414	2.5	A	violation	1	0.7314709885977209
232.48689996171746	2.5	B	nonviolation	0	1.1631992869079113
235.48686283361167	2.5	B	violation	0	0.954152328427881
238.50350113166496	2.5	A	violation	1	0.6085957819595933
241.50346120866016	2.5	A	violation	1	1.175634111277759
244.4867375670001	2.5	B	nonviolation	0	1.1483232346363366
247.4866950949654	2.5	A	nonviolation	1	0.8244012999348342
250.486660795752	2.5	B	violation	0	1.3834342332556844
253.48662831261757	2.5	A	nonviolation	1	0.8414694289676845
256.4865737487562	2.5	A	nonviolation	1	0.99452371802181
259.48653471982107	2.5	A	nonviolation	1	1.0465576541610062
262.48649027198553	2.5	A	nonviolation	1	1.5676069017499683
265.4864593357779	2.5	B	nonviolation	1	1.0436397632583976
268.4864208367653	2.5	A	nonviolation	1	1.006686577107757
271.48637902690103	2.5	B	violation	0	1.6567172789946198
274.48633747780696	2.5	B	nonviolation	1	1.2717646220698953
277.48629963304853	2.5	A	violation	1	0.6477982215583324
280.4862632136792	2.5	A	violation	1	0.6758340420201421
283.48621366685256	2.5	B	violation	0	0.8268850231543183
286.48617406003183	2.5	A	violation	1	0.6589265977963805
289.48613222176215	2.5	B	nonviolation	0	0.9719694559462368
292.4860914167948	2.5	B	nonviolation	0	0.9860134432092308
295.4860525466502	2.5	A	nonviolation	0	1.2630513180047274
298.48600970674306	2.5	B	violation	1	0.8080916060134768
301.4859692710452	2.5	B	nonviolation	0	0.9031331166625024
304.485929525923	2.5	B	violation	0	1.152174571994692
307.48588906368235	2.5	A	nonviolation	1	0.87121875397861
310.4858462619595	2.5	B	violation	0	1.1742553426884117
313.48580525582656	2.5	B	nonviolation	0	1.2192953960038722
316.48576509580016	2.5	B	violation	0	1.4033405929803848
319.4857232510112	2.5	B	violation	1	1.278382389806211
322.4856842746958	2.5	A	nonviolation	1	0.6554267392493784
325.4856425728649	2.5	B	nonviolation	1	0.7754641901701689
328.48560257302603	2.5	A	violation	1	0.8985155099071562
331.48556157480925	2.5	A	violation	1	0.8945442670956254
334.4855195567943	2.5	A	violation	1	0.6315883309580386
337.48547985870385	2.5	B	nonviolation	1	0.9316278072074056
340.4854423548095	2.5	A	nonviolation	1	0.8526658560149372
343.48540969798336	2.5	A	nonviolation	1	0.5627004057168961
346.48535638162866	2.5	B	violation	0	0.7437717081047595
349.4853224637918	2.5	A	violation	1	0.7497079949826002
352.48529028287163	2.5	A	violation	1	0.7258186931721866
355.4852399718948	2.5	A	nonviolation	1	0.6968692848458886
358.48519879579544	2.5	A	violation	1	0.8349091671407223
361.4851525500417	2.5	B	violation	0	1.0299644866026938
364.4851171136834	2.5	B	violation	0	0.5979868862777948
367.4850828195922	2.5	B	violation	1	0.7659699693322182
370.48503294959664	2.5	A	nonviolation	1	1.009075412992388
373.4849965227768	2.5	B	nonviolation	1	0.8660349701531231
376.4849634449929	2.5	B	nonviolation	1	0.9891456849873066
379.4849207457155	2.5	B	nonviolation	1	0.7871921760961413
382.4848765148782	2.5	A	nonviolation	1	0.7222347417846322
385.4848366966471	2.5	A	nonviolation	1	0.8552737790159881
388.4847893626429	2.5	A	nonviolation	1	0.9293250869959592
391.484755218029	2.5	A	violation	1	0.619354791007936
394.484719412867	2.5	A	violation	1	0.7464021500200033
397.48467501904815	2.5	B	violation	0	0.7714414498768747
400.48462733160704	2.5	B	nonviolation	0	0.742496773134917
403.48459072504187	2.5	B	nonviolation	0	0.889520619995892
406.484544234816	2.5	B	violation	0	0.7455670568160713
409.4845041800289	2.5	A	violation	1	0.7345625176094472
412.4844629089348	2.5	A	nonviolation	1	0.7345936568453908
415.48442032886663	2.5	B	nonviolation	1	1.0476965140551329
418.48437814787036	2.5	A	nonviolation	1	1.0447368719615042
421.48433968890464	2.5	A	violation	1	0.6517760809510946
424.4843040346168	2.5	A	nonviolation	1	0.7948115761391819
427.4842570819892	2.5	B	violation	0	0.7818598467856646
430.48421865003183	2.5	A	violation	1	0.7309001400135458
433.4841869906522	2.5	A	violation	1	0.984930765349418
436.48413293994963	2.5	B	nonviolation	0	0.8009564238600433
439.48409294197336	2.5	B	nonviolation	0	1.0120287598110735
442.48404722986743	2.5	B	violation	1	0.9130785679444672
445.4840127360076	2.5	B	nonviolation	1	1.0481015648692846
448.4839659440331	2.5	A	nonviolation	0	1.4321596575900912
451.48392427060753	2.5	A	nonviolation	1	0.8081962093710899
454.48388874996454	2.5	B	nonviolation	1	0.6232343269512057
457.48385240789503	2.5	B	nonviolation	0	0.9462651489302516
460.4838115125895	2.5	B	violation	0	0.8512310041114688
463.4837630586698	2.5	B	nonviolation	0	0.8313647182658315
466.48372832685715	2.5	B	violation	0	0.8653925987891853
469.48368728393683	2.5	A	violation	1	0.6114313220605254
472.4836377468891	2.5	B	nonviolation	0	1.6984771960414946
475.48359922785306	2.5	A	violation	1	0.9055247101932764
478.48356417194015	2.5	B	violation	1	0.945561733096838
481.4835190288722	2.5	B	violation	1	0.7596057001501322
484.4834761037492	2.5	B	nonviolation	0	0.5926488619297743
487.48343404801557	2.5	A	violation	1	0.8906984520144761
490.4833960747346	2.5	A	violation	1	0.5787290199659765
493.48335543600837	2.5	B	violation	0	0.8307726266793907
496.4833129737526	2.5	A	nonviolation	1	0.7958112829364836
499.48327381303534	2.5	B	nonviolation	0	0.8728570607490838
502.483231135644	2.5	A	violation	1	0.8408973170444369
505.48319639870897	2.5	A	nonviolation	1	0.7179409703239799
508.4831463927403	2.5	A	violation	1	0.5729808481410146
511.48310786904767	2.5	A	violation	1	0.6019611419178545
514.483066199813	2.5	A	nonviolation	1	0.5860633519478142
517.4830212290399	2.5	A	nonviolation	1	0.9591091456823052
520.4829893987626	2.5	A	violation	0	0.603138439822942
523.4829452056439	2.5	A	nonviolation	1	0.9141881153918804
526.4829051047564	2.5	B	nonviolation	1	0.8062284411862493
529.4828560496679	2.5	A	nonviolation	1	0.6622750340029597
532.4828269057907	2.5	B	violation	0	0.7423047218471766
535.482779444661	2.5	A	violation	1	0.9013510821387172
538.4827384436503	2.5	B	nonviolation	1	1.0264006881043315
541.4826978398487	2.5	B	violation	0	0.9394355551339686
544.4826567838901	2.5	A	nonviolation	1	0.9324766858480872
547.482610733714	2.5	B	violation	1	0.9045278592966496
550.4825667357072	2.5	B	nonviolation	1	1.0354876830242574
553.4825310739689	2.5	B	violation	1	0.8316083066165447
556.4824891476892	2.5	B	violation	0	0.7656503319740295
559.4824475408532	2.5	B	violation	0	0.8286925200372934
562.4824085459113	2.5	A	nonviolation	1	0.7467271280474961
565.4823724147864	2.5	B	violation	1	0.8427681308239698
568.4823309108615	2.5	A	violation	1	0.6358099230565131
571.4822854869999	2.5	B	nonviolation	1	1.083802388980985
574.4822431076318	2.5	A	nonviolation	1	0.7658982523716986
577.4822084689513	2.5	A	violation	1	0.7379316459409893
580.4821595959365	2.5	B	nonviolation	0	1.2319779600948095
583.4821202070453	2.5	A	nonviolation	0	1.1640164479613304
586.4820768428035	2.5	A	violation	1	0.7790638348087668
