onset	duration	trial_type	condition	repetition	pairmate	pairID	category	subcategory	response_accuracy	response_time
13.501459840917962	1	prelearning	nonviolation	1	A	66	scene	indoor	1	0.7037974069826305
16.501422618050128	1	prelearning	violation	1	B	20	scene	indoor	1	0.5548274610191584
19.501385607058186	1	prelearning	violation	1	A	22	scene	outdoor	1	0.4968673619441688
22.50134924310259	1	prelearning	violation	1	A	17	scene	outdoor	1	0.5958165638148785
25.501311064930636	1	prelearning	nonviolation	1	A	68	scene	indoor	1	0.6329421901609749
28.50126263592392	1	prelearning	nonviolation	1	B	67	scene	outdoor	1	0.6449886029586196
31.50123799405992	1	prelearning	nonviolation	1	B	72	scene	indoor	1	0.6330171718727797
34.5011963469442	1	prelearning	nonviolation	1	B	66	scene	indoor	1	0.5510585031006485
37.50114518892951	1	prelearning	violation	1	A	19	scene	indoor	1	0.5231105790007861
40.501103939954184	1	prelearning	violation	1	B	17	scene	outdoor	1	0.4411503430455923
43.50106573407538	1	prelearning	violation	1	B	23	scene	outdoor	1	0.6661858779843897
46.50103059806861	1	prelearning	nonviolation	1	A	65	scene	outdoor	1	0.6122225068975239
49.500983613077544	1	prelearning	nonviolation	1	A	71	scene	outdoor	1	0.9163007088936864
52.50094693806022	1	prelearning	nonviolation	1	B	70	scene	outdoor	1	0.6153047569096088
55.50090423901565	1	prelearning	violation	1	A	23	scene	indoor	1	0.5343504850752652
58.50086628808639	1	prelearning	violation	1	B	24	scene	indoor	1	0.5583910469431429
61.50082263094373	1	prelearning	nonviolation	1	B	71	scene	outdoor	1	0.5764348800294101
64.5007851771079	1	prelearning	nonviolation	1	B	69	scene	indoor	1	1.0224773059599102
67.50074275303632	1	prelearning	violation	1	B	22	scene	indoor	1	0.5745156558696181
70.50070473295636	1	prelearning	nonviolation	1	A	67	scene	outdoor	1	0.4875484150834382
73.5006610311102	1	prelearning	nonviolation	1	B	65	scene	indoor	1	0.4705972098745406
76.500642956933	1	prelearning	nonviolation	1	A	70	scene	indoor	1	0.4876137459650636
79.5006003929302	1	prelearning	violation	1	B	21	scene	outdoor	1	0.5156596610322595
82.50055891904049	1	prelearning	violation	1	A	24	scene	indoor	1	0.7527000328991562
85.50050254305825	1	prelearning	violation	1	B	18	scene	outdoor	1	0.5067555408459157
88.50046330410989	1	prelearning	violation	1	A	20	scene	outdoor	1	0.9557934899348766
91.50043322588316	1	prelearning	nonviolation	1	A	72	scene	outdoor	1	0.5558292591013014
94.50037562893705	1	prelearning	violation	1	B	19	scene	indoor	1	0.6228872020728886
97.50035108509474	1	prelearning	violation	1	A	21	scene	indoor	1	0.7087987968698144
100.50030412198977	1	prelearning	nonviolation	1	A	69	scene	indoor	1	0.5689572540577501
103.50025595305486	1	prelearning	nonviolation	1	B	68	scene	outdoor	1	0.4850060290191322
106.50022155209444	1	prelearning	violation	1	A	18	scene	outdoor	1	0.4330411078408361
109.50213859905487	1	learning	violation	2	A	17	scene	outdoor	1	0.4171218439005315
112.5001396110747	1	learning	violation	2	B	17	scene	outdoor	1	0.4651214529294521
115.50010117702186	1	learning	nonviolation	2	A	65	scene	outdoor	1	0.4961612150073052
118.5000638109632	1	learning	nonviolation	2	B	65	scene	indoor	1	0.5791966740507632
121.50001740199514	1	learning	nonviolation	2	A	66	scene	indoor	1	0.7552473249379545
124.49998287996277	1	learning	nonviolation	2	B	66	scene	indoor	1	0.6032830579206347
127.49993694503792	1	learning	violation	2	A	18	scene	outdoor	1	0.7443318718578666
130.49990455899388	1	learning	violation	2	B	18	scene	outdoor	1	0.5483567130286247
133.49986849492416	1	learning	violation	3	A	17	scene	outdoor	1	0.5353998180944473
136.49981285305694	1	learning	violation	3	B	17	scene	outdoor	1	0.4534530560486018
139.4997835101094	1	learning	violation	2	A	19	scene	indoor	1	0.7234779719728976
142.49973550392315	1	learning	violation	2	B	19	scene	indoor	1	0.9475349739659578
145.49969163211063	1	learning	nonviolation	2	A	67	scene	outdoor	1	0.6435718617867678
148.4996538918931	1	learning	nonviolation	2	B	67	scene	outdoor	1	0.6206208260264248
151.49961886391975	1	learning	violation	2	A	20	scene	outdoor	1	0.5626509671565145
154.49957078788432	1	learning	violation	2	B	20	scene	indoor	1	0.7297010931652039
157.4995319258887	1	learning	violation	2	A	21	scene	indoor	1	0.7557362201623619
160.49950069189072	1	learning	violation	2	B	21	scene	outdoor	1	0.6117686321958901
163.49945813789964	1	learning	nonviolation	2	A	68	scene	indoor	1	0.5508128290530294
166.499411045108	1	learning	nonviolation	2	B	68	scene	outdoor	1	0.5498565719462931
169.49937020009384	1	learning	violation	2	A	22	scene	outdoor	1	0.6119073180016129
172.4993368180003	1	learning	violation	2	B	22	scene	indoor	1	0.5459324889816344
175.4992896548938	1	learning	violation	2	A	23	scene	indoor	1	0.6389803700149059
178.4992545470595	1	learning	violation	2	B	23	scene	outdoor	1	0.6830161369871348
181.49923584400682	1	learning	nonviolation	2	A	69	scene	indoor	1	0.5200331239029765
184.4991727489978	1	learning	nonviolation	2	B	69	scene	indoor	1	0.9590979630593209
187.49912577099167	1	learning	violation	3	A	22	scene	outdoor	1	0.5241515340749174
190.4990914070513	1	learning	violation	3	B	22	scene	indoor	1	0.5491772620007396
193.49905122397467	1	learning	violation	4	A	17	scene	outdoor	1	0.5252226181328297
196.49900511302985	1	learning	violation	4	B	17	scene	outdoor	1	0.5972665799781679
199.49896893207915	1	learning	violation	3	A	18	scene	outdoor	1	0.8443057299591601
202.49892498692498	1	learning	violation	3	B	18	scene	outdoor	1	0.5553498531226069
205.4988904020284	1	learning	violation	3	A	21	scene	indoor	1	0.6142612418625504
208.4988391660154	1	learning	violation	3	B	21	scene	outdoor	1	0.5224370900541544
211.49880301509984	1	learning	nonviolation	3	A	68	scene	indoor	1	0.7034767779987305
214.4987614410929	1	learning	nonviolation	3	B	68	scene	outdoor	1	0.6415099059231579
217.49871975090355	1	learning	nonviolation	3	A	65	scene	outdoor	1	0.4985609680879861
220.4986857739277	1	learning	nonviolation	3	B	65	scene	indoor	1	0.4955899461638182
223.4986345199868	1	learning	nonviolation	3	A	67	scene	outdoor	1	0.507641376927495
226.4985973269213	1	learning	nonviolation	3	B	67	scene	outdoor	1	0.6356819190550596
229.49855549191125	1	learning	violation	3	A	19	scene	indoor	1	0.5647220981772989
232.4985128140543	1	learning	violation	3	B	19	scene	indoor	1	0.5047689320053905
235.49847002397289	1	learning	nonviolation	3	A	66	scene	indoor	1	0.5408084359951317
238.4984408160672	1	learning	nonviolation	3	B	66	scene	indoor	1	0.5128414949867874
241.49839316890572	1	learning	violation	3	A	23	scene	indoor	1	0.5248862360604107
244.4983516118955	1	learning	violation	3	B	23	scene	outdoor	1	0.4698480430524796
247.498316135956	1	learning	violation	3	A	20	scene	outdoor	1	0.8059625870082527
250.49827652890235	1	learning	violation	3	B	20	scene	indoor	1	0.4920004261657596
253.49822982610203	1	learning	nonviolation	4	A	66	scene	indoor	1	0.4950469129253179
256.49818426696584	1	learning	nonviolation	4	B	66	scene	indoor	1	0.4750944930128753
259.4981499859132	1	learning	nonviolation	4	A	65	scene	outdoor	1	0.5191351249814034
262.4981132990215	1	learning	nonviolation	4	B	65	scene	indoor	1	0.6521713100373745
265.498063839972	1	learning	nonviolation	3	A	69	scene	indoor	1	0.5152174890972674
268.4980216359254	1	learning	nonviolation	3	B	69	scene	indoor	1	0.4722605210263282
271.4979836929124	1	violation	violation	5	A	17	scene	outdoor	1	0.7232967091258615
274.4979411289096	1	violation	violation	1	X	17	face	male	1	0.7532807081006467
277.49789976305334	1	learning	violation	4	A	21	scene	indoor	1	0.5323857530020177
280.49786080489866	1	learning	violation	4	B	21	scene	outdoor	1	0.4994241551030427
283.49781896197237	1	learning	nonviolation	4	A	67	scene	outdoor	1	0.5033484071027488
286.49778034491464	1	learning	nonviolation	4	B	67	scene	outdoor	1	0.7335045721847564
289.4977433779277	1	restudy	nonviolation	5	B	65	scene	indoor	1	0.4865483280736953
292.49769873498013	1	learning	violation	4	A	22	scene	outdoor	1	0.7545876661315559
295.49766601109883	1	learning	violation	4	B	22	scene	indoor	1	0.5876186618115753
298.49761540908366	1	violation	violation	5	A	21	scene	indoor	1	0.5546715320087969
301.49758112989366	1	violation	violation	1	X	21	face	male	1	0.7327064021956176
304.49753346294165	1	learning	nonviolation	4	A	69	scene	indoor	1	0.5447598651517183
307.4974896260537	1	learning	nonviolation	4	B	69	scene	indoor	1	0.4827993179205805
310.49745118408464	1	learning	nonviolation	2	A	70	scene	indoor	1	0.5018345408607274
313.49741620896384	1	learning	nonviolation	2	B	70	scene	outdoor	1	0.5718731600791216
316.4973742729053	1	learning	violation	4	A	18	scene	outdoor	1	0.5649167960509658
319.49733483907767	1	learning	violation	4	B	18	scene	outdoor	1	0.5159596549347043
322.4973159939982	1	restudy	violation	5	B	17	scene	outdoor	1	0.5919760200195014
325.4972446761094	1	learning	nonviolation	4	A	68	scene	indoor	1	0.6090411038603634
328.497234439943	1	learning	nonviolation	4	B	68	scene	outdoor	1	0.4820612920448184
331.4971591280773	1	learning	violation	4	A	23	scene	indoor	1	0.4841367788612842
334.4971491000615	1	learning	violation	4	B	23	scene	outdoor	1	0.6151412699837238
337.49708045297297	1	restudy	nonviolation	6	B	65	scene	indoor	1	0.5122109819203615
340.4970344749745	1	learning	violation	4	A	19	scene	indoor	1	0.483257605927065
343.49699540506117	1	learning	violation	4	B	19	scene	indoor	1	0.5112981959246099
346.49695889791474	1	violation	violation	5	A	18	scene	outdoor	1	0.488329369109124
349.49691764893936	1	violation	violation	1	X	18	face	male	1	0.594375082058832
352.49687713291496	1	learning	violation	4	A	20	scene	outdoor	1	0.5154171891044825
355.4968413349707	1	learning	violation	4	B	20	scene	indoor	1	0.4854573181364685
358.49680079892283	1	restudy	nonviolation	5	B	66	scene	indoor	1	0.5544945511501282
361.49675666796975	1	learning	nonviolation	3	A	70	scene	indoor	1	0.5335390639957039
364.49671385297546	1	learning	nonviolation	3	B	70	scene	outdoor	1	0.5375754639972001
367.4966755521018	1	restudy	violation	5	B	21	scene	outdoor	1	0.6086216438561678
370.496639539022	1	restudy	nonviolation	5	B	69	scene	indoor	1	0.5276611810550094
373.4965874711052	1	restudy	violation	5	B	18	scene	outdoor	1	0.6165853377897292
376.4965424800757	1	restudy	nonviolation	5	B	67	scene	outdoor	0	0.5697515408974141
379.4965055519715	1	violation	violation	5	A	22	scene	outdoor	1	0.5297935570124537
382.479787098011	1	violation	violation	1	X	22	face	female	1	0.5905113739427179
385.49642343888985	1	violation	violation	6	A	21	scene	indoor	1	0.6608699481002986
388.4963875790128	1	violation	violation	1	Y	21	face	male	1	0.6609123589005321
391.4963403830769	1	violation	violation	6	A	17	scene	outdoor	1	0.6319555488880724
394.4963083250914	1	violation	violation	1	Y	17	face	male	1	0.6029913329984993
397.4962578050327	1	restudy	nonviolation	6	B	66	scene	indoor	1	0.4880418030079454
400.479543389054	1	restudy	nonviolation	5	B	68	scene	outdoor	1	0.5087598199024796
403.4795018190053	1	restudy	nonviolation	6	B	69	scene	indoor	1	0.4367992910556495
406.4794575320557	1	violation	violation	5	A	23	scene	indoor	1	0.517840628977865
409.47941584908403	1	violation	violation	1	X	23	face	male	1	0.5018849489279091
412.47937224502675	1	violation	violation	5	A	19	scene	indoor	1	0.4799515348859131
415.4793332270346	1	violation	violation	1	X	19	face	female	1	0.5149665179196745
418.47929368005134	1	violation	violation	5	A	20	scene	outdoor	1	0.5230052969418466
421.47925972496165	1	violation	violation	1	X	20	face	female	1	0.5300363639835268
424.4792205858976	1	restudy	nonviolation	6	B	67	scene	outdoor	1	0.6460825211834162
427.47917586402036	1	learning	violation	2	A	24	scene	indoor	1	0.6541236999910325
430.4791349489242	1	learning	violation	2	B	24	scene	indoor	1	0.4831697039771825
433.47909382800566	1	restudy	violation	6	B	21	scene	outdoor	1	0.5381041578948498
436.4790580549743	1	violation	violation	6	A	18	scene	outdoor	1	0.5342424889095128
439.4790059931111	1	violation	violation	1	Y	18	face	male	1	0.6832994949072599
442.4789712429047	1	learning	violation	3	A	24	scene	indoor	1	0.7653364262077957
445.4789279289544	1	learning	violation	3	B	24	scene	indoor	1	0.5903756781481206
448.47888483293366	1	learning	nonviolation	4	A	70	scene	indoor	1	0.5974175990559161
451.4788460759446	1	learning	nonviolation	4	B	70	scene	outdoor	1	0.5584618409629911
454.4788069480565	1	restudy	violation	5	B	22	scene	indoor	1	0.4915000258479267
457.47876543900935	1	learning	violation	4	A	24	scene	indoor	1	0.5185426000971347
460.4787232480012	1	learning	violation	4	B	24	scene	indoor	1	0.4935835460200906
463.47868203208776	1	restudy	nonviolation	5	B	70	scene	outdoor	1	0.497624774929136
466.4786424299237	1	learning	nonviolation	2	A	71	scene	outdoor	1	0.6265337390359491
469.478602640098	1	learning	nonviolation	2	B	71	scene	outdoor	1	0.4827024720143527
472.47855901299033	1	learning	nonviolation	2	A	72	scene	outdoor	1	0.4797573809046298
475.478516920004	1	learning	nonviolation	2	B	72	scene	indoor	1	0.7687594229355454
478.4784751920961	1	restudy	violation	5	B	23	scene	outdoor	0	0.4388346348423511
481.4784388609696	1	restudy	violation	5	B	19	scene	indoor	1	0.5328691950999199
484.47839326411486	1	restudy	violation	6	B	17	scene	outdoor	1	0.5269182377960533
487.4783516670577	1	restudy	violation	5	B	20	scene	indoor	1	0.5399584569968283
490.47831247607246	1	restudy	nonviolation	6	B	68	scene	outdoor	1	0.531998046906665
493.47827188204974	1	learning	nonviolation	3	A	72	scene	outdoor	1	0.5210474438499659
496.47822960093623	1	learning	nonviolation	3	B	72	scene	indoor	1	0.5080856131389737
499.4781904281117	1	learning	nonviolation	3	A	71	scene	outdoor	1	0.4961252559442073
502.47814710089006	1	learning	nonviolation	3	B	71	scene	outdoor	1	0.5090949961449951
505.4781073089689	1	restudy	violation	6	B	18	scene	outdoor	1	0.5011880339588971
508.4780671079643	1	violation	violation	6	A	22	scene	outdoor	1	0.5432483989279717
511.4780233630445	1	violation	violation	1	Y	22	face	female	1	0.7062192298471928
514.4779842770658	1	violation	violation	5	A	24	scene	indoor	1	0.497331972932443
517.4779426280875	1	violation	violation	1	X	24	face	female	1	0.6283675648737699
520.4779400159605	1	learning	nonviolation	4	A	72	scene	outdoor	1	0.4623752420302481
523.4778590609785	1	learning	nonviolation	4	B	72	scene	indoor	1	0.49845517100766296
526.4778196089901	1	restudy	violation	6	B	22	scene	indoor	1	0.5514961299486458
529.4777797970455	1	violation	violation	6	A	20	scene	outdoor	1	0.540534125873819
532.4777368539943	1	violation	violation	1	Y	20	face	female	1	0.6285792388953269
535.4776969489176	1	learning	nonviolation	4	A	71	scene	outdoor	1	0.6216204480733722
538.4776755869389	1	learning	nonviolation	4	B	71	scene	outdoor	1	0.505641152150929
541.4776464719325	1	restudy	violation	5	B	24	scene	indoor	1	0.5036690849810839
544.477575605968	1	violation	violation	6	A	19	scene	indoor	1	0.6157377529889345
547.477603941923	1	violation	violation	1	Y	19	face	female	1	0.6017107451334596
550.4774899610784	1	violation	violation	6	A	23	scene	indoor	1	0.5618320498615503
553.4774470711127	1	violation	violation	1	Y	23	face	male	1	0.5688703258056194
556.4774181810208	1	restudy	nonviolation	6	B	70	scene	outdoor	1	0.5709066179115325
559.4773719299119	1	restudy	nonviolation	5	B	72	scene	indoor	1	0.4889467491302639
562.4773410370108	1	restudy	violation	6	B	19	scene	indoor	1	0.4889799810480326
565.4772836130578	1	restudy	nonviolation	5	B	71	scene	outdoor	1	0.5599630959331989
568.4772577760741	1	restudy	violation	6	B	20	scene	indoor	1	0.4750635100062937
571.4772054268979	1	violation	violation	6	A	24	scene	indoor	1	0.4941169540397823
574.4771669330075	1	violation	violation	1	Y	24	face	female	1	0.4701528849545866
577.4771267750766	1	restudy	nonviolation	6	B	71	scene	outdoor	1	0.4971944110002369
580.4770843049047	1	restudy	nonviolation	6	B	72	scene	indoor	1	0.4692420931532979
583.4770507139621	1	restudy	violation	6	B	24	scene	indoor	1	0.5342008590232581
586.4769994069356	1	restudy	violation	6	B	23	scene	outdoor	1	0.5573208101559429
